"","subject","run","block","trial","N","reward","stimulus","cue","isTarget","key_press","rt","acc","debrief","performance","frustration","demand","temporal","effort","age","gender","comments","nfc1","nfc2","nfc3","nfc4","nfc5","nfc6","nfc7","nfc8","nfc9","nfc10","nfc11","nfc12","nfc13","nfc14","nfc15","nfc16","nfc17","nfc18"
"1","AY1NVR3M3GYCI:3PMBY0YE289D4W4GBBCVWI3CTRKC91","practice",1,1,1,"NA","<p style=""font-size:100px""><b>d</b></p><p style=""position: absolute; top: 30px; right: 30px; text-align:right; font-size:50px"""">N = 1</p>","d",0,69,6118.18499863148,0,"agree",11,8,16,19,16,"32","male","The instruct ructions are clear.","Neither Agreement nor Disagreement","Moderate Agreement","Strong Disagreement","Moderate Disagreement","Moderate Disagreement","Moderate Agreement","Slight Agreement","Moderate Disagreement","Moderate Agreement","Slight Agreement","Very Strong Agreement","Moderate Disagreement","Moderate Agreement","Neither Agreement nor Disagreement","Slight Agreement","Moderate Disagreement","Strong Disagreement","Moderate Disagreement"
"2","AY1NVR3M3GYCI:3PMBY0YE289D4W4GBBCVWI3CTRKC91","practice",1,2,1,"NA","<p style=""font-size:100px""><b>T</b></p><p style=""position: absolute; top: 30px; right: 30px; text-align:right; font-size:50px"""">N = 1</p>","T",0,73,3253.59500013292,1,"agree",11,8,16,19,16,"32","male","The instruct ructions are clear.","Neither Agreement nor Disagreement","Moderate Agreement","Strong Disagreement","Moderate Disagreement","Moderate Disagreement","Moderate Agreement","Slight Agreement","Moderate Disagreement","Moderate Agreement","Slight Agreement","Very Strong Agreement","Moderate Disagreement","Moderate Agreement","Neither Agreement nor Disagreement","Slight Agreement","Moderate Disagreement","Strong Disagreement","Moderate Disagreement"
"3","AY1NVR3M3GYCI:3PMBY0YE289D4W4GBBCVWI3CTRKC91","practice",1,3,1,"NA","<p style=""font-size:100px""><b>T</b></p><p style=""position: absolute; top: 30px; right: 30px; text-align:right; font-size:50px"""">N = 1</p>","T",1,69,3524.24500137568,1,"agree",11,8,16,19,16,"32","male","The instruct ructions are clear.","Neither Agreement nor Disagreement","Moderate Agreement","Strong Disagreement","Moderate Disagreement","Moderate Disagreement","Moderate Agreement","Slight Agreement","Moderate Disagreement","Moderate Agreement","Slight Agreement","Very Strong Agreement","Moderate Disagreement","Moderate Agreement","Neither Agreement nor Disagreement","Slight Agreement","Moderate Disagreement","Strong Disagreement","Moderate Disagreement"
"4","AY1NVR3M3GYCI:3PMBY0YE289D4W4GBBCVWI3CTRKC91","practice",1,4,1,"NA","<p style=""font-size:100px""><b>T</b></p><p style=""position: absolute; top: 30px; right: 30px; text-align:right; font-size:50px"""">N = 1</p>","T",1,69,1708.7549995631,1,"agree",11,8,16,19,16,"32","male","The instruct ructions are clear.","Neither Agreement nor Disagreement","Moderate Agreement","Strong Disagreement","Moderate Disagreement","Moderate Disagreement","Moderate Agreement","Slight Agreement","Moderate Disagreement","Moderate Agreement","Slight Agreement","Very Strong Agreement","Moderate Disagreement","Moderate Agreement","Neither Agreement nor Disagreement","Slight Agreement","Moderate Disagreement","Strong Disagreement","Moderate Disagreement"
"5","AY1NVR3M3GYCI:3PMBY0YE289D4W4GBBCVWI3CTRKC91","practice",1,5,1,"NA","<p style=""font-size:100px""><b>P</b></p><p style=""position: absolute; top: 30px; right: 30px; text-align:right; font-size:50px"""">N = 1</p>","P",0,73,1917.90000163019,1,"agree",11,8,16,19,16,"32","male","The instruct ructions are clear.","Neither Agreement nor Disagreement","Moderate Agreement","Strong Disagreement","Moderate Disagreement","Moderate Disagreement","Moderate Agreement","Slight Agreement","Moderate Disagreement","Moderate Agreement","Slight Agreement","Very Strong Agreement","Moderate Disagreement","Moderate Agreement","Neither Agreement nor Disagreement","Slight Agreement","Moderate Disagreement","Strong Disagreement","Moderate Disagreement"
"6","AY1NVR3M3GYCI:3PMBY0YE289D4W4GBBCVWI3CTRKC91","practice",1,6,1,"NA","<p style=""font-size:100px""><b>T</b></p><p style=""position: absolute; top: 30px; right: 30px; text-align:right; font-size:50px"""">N = 1</p>","T",0,69,1522.66499958932,0,"agree",11,8,16,19,16,"32","male","The instruct ructions are clear.","Neither Agreement nor Disagreement","Moderate Agreement","Strong Disagreement","Moderate Disagreement","Moderate Disagreement","Moderate Agreement","Slight Agreement","Moderate Disagreement","Moderate Agreement","Slight Agreement","Very Strong Agreement","Moderate Disagreement","Moderate Agreement","Neither Agreement nor Disagreement","Slight Agreement","Moderate Disagreement","Strong Disagreement","Moderate Disagreement"
"7","AY1NVR3M3GYCI:3PMBY0YE289D4W4GBBCVWI3CTRKC91","practice",1,7,1,"NA","<p style=""font-size:100px""><b>D</b></p><p style=""position: absolute; top: 30px; right: 30px; text-align:right; font-size:50px"""">N = 1</p>","D",0,73,1324.4899995625,1,"agree",11,8,16,19,16,"32","male","The instruct ructions are clear.","Neither Agreement nor Disagreement","Moderate Agreement","Strong Disagreement","Moderate Disagreement","Moderate Disagreement","Moderate Agreement","Slight Agreement","Moderate Disagreement","Moderate Agreement","Slight Agreement","Very Strong Agreement","Moderate Disagreement","Moderate Agreement","Neither Agreement nor Disagreement","Slight Agreement","Moderate Disagreement","Strong Disagreement","Moderate Disagreement"
"8","AY1NVR3M3GYCI:3PMBY0YE289D4W4GBBCVWI3CTRKC91","practice",1,8,1,"NA","<p style=""font-size:100px""><b>p</b></p><p style=""position: absolute; top: 30px; right: 30px; text-align:right; font-size:50px"""">N = 1</p>","p",0,73,897.37500064075,1,"agree",11,8,16,19,16,"32","male","The instruct ructions are clear.","Neither Agreement nor Disagreement","Moderate Agreement","Strong Disagreement","Moderate Disagreement","Moderate Disagreement","Moderate Agreement","Slight Agreement","Moderate Disagreement","Moderate Agreement","Slight Agreement","Very Strong Agreement","Moderate Disagreement","Moderate Agreement","Neither Agreement nor Disagreement","Slight Agreement","Moderate Disagreement","Strong Disagreement","Moderate Disagreement"
"9","AY1NVR3M3GYCI:3PMBY0YE289D4W4GBBCVWI3CTRKC91","practice",1,9,1,"NA","<p style=""font-size:100px""><b>p</b></p><p style=""position: absolute; top: 30px; right: 30px; text-align:right; font-size:50px"""">N = 1</p>","p",1,69,962.655000388622,1,"agree",11,8,16,19,16,"32","male","The instruct ructions are clear.","Neither Agreement nor Disagreement","Moderate Agreement","Strong Disagreement","Moderate Disagreement","Moderate Disagreement","Moderate Agreement","Slight Agreement","Moderate Disagreement","Moderate Agreement","Slight Agreement","Very Strong Agreement","Moderate Disagreement","Moderate Agreement","Neither Agreement nor Disagreement","Slight Agreement","Moderate Disagreement","Strong Disagreement","Moderate Disagreement"
"10","AY1NVR3M3GYCI:3PMBY0YE289D4W4GBBCVWI3CTRKC91","practice",1,10,1,"NA","<p style=""font-size:100px""><b>g</b></p><p style=""position: absolute; top: 30px; right: 30px; text-align:right; font-size:50px"""">N = 1</p>","g",0,73,1024.299999699,1,"agree",11,8,16,19,16,"32","male","The instruct ructions are clear.","Neither Agreement nor Disagreement","Moderate Agreement","Strong Disagreement","Moderate Disagreement","Moderate Disagreement","Moderate Agreement","Slight Agreement","Moderate Disagreement","Moderate Agreement","Slight Agreement","Very Strong Agreement","Moderate Disagreement","Moderate Agreement","Neither Agreement nor Disagreement","Slight Agreement","Moderate Disagreement","Strong Disagreement","Moderate Disagreement"
"11","AY1NVR3M3GYCI:3PMBY0YE289D4W4GBBCVWI3CTRKC91","practice",1,11,1,"NA","<p style=""font-size:100px""><b>g</b></p><p style=""position: absolute; top: 30px; right: 30px; text-align:right; font-size:50px"""">N = 1</p>","g",1,69,1094.24000047147,1,"agree",11,8,16,19,16,"32","male","The instruct ructions are clear.","Neither Agreement nor Disagreement","Moderate Agreement","Strong Disagreement","Moderate Disagreement","Moderate Disagreement","Moderate Agreement","Slight Agreement","Moderate Disagreement","Moderate Agreement","Slight Agreement","Very Strong Agreement","Moderate Disagreement","Moderate Agreement","Neither Agreement nor Disagreement","Slight Agreement","Moderate Disagreement","Strong Disagreement","Moderate Disagreement"
"12","AY1NVR3M3GYCI:3PMBY0YE289D4W4GBBCVWI3CTRKC91","practice",1,12,1,"NA","<p style=""font-size:100px""><b>P</b></p><p style=""position: absolute; top: 30px; right: 30px; text-align:right; font-size:50px"""">N = 1</p>","P",0,73,1139.08999972045,1,"agree",11,8,16,19,16,"32","male","The instruct ructions are clear.","Neither Agreement nor Disagreement","Moderate Agreement","Strong Disagreement","Moderate Disagreement","Moderate Disagreement","Moderate Agreement","Slight Agreement","Moderate Disagreement","Moderate Agreement","Slight Agreement","Very Strong Agreement","Moderate Disagreement","Moderate Agreement","Neither Agreement nor Disagreement","Slight Agreement","Moderate Disagreement","Strong Disagreement","Moderate Disagreement"
"13","AY1NVR3M3GYCI:3PMBY0YE289D4W4GBBCVWI3CTRKC91","practice",2,1,2,"NA","<p style=""font-size:100px""><b>b</b></p><p style=""position: absolute; top: 30px; right: 30px; text-align:right; font-size:50px"""">N = 2</p>","b",0,73,984.309999272227,1,"agree",11,8,16,19,16,"32","male","The instruct ructions are clear.","Neither Agreement nor Disagreement","Moderate Agreement","Strong Disagreement","Moderate Disagreement","Moderate Disagreement","Moderate Agreement","Slight Agreement","Moderate Disagreement","Moderate Agreement","Slight Agreement","Very Strong Agreement","Moderate Disagreement","Moderate Agreement","Neither Agreement nor Disagreement","Slight Agreement","Moderate Disagreement","Strong Disagreement","Moderate Disagreement"
"14","AY1NVR3M3GYCI:3PMBY0YE289D4W4GBBCVWI3CTRKC91","practice",2,2,2,"NA","<p style=""font-size:100px""><b>d</b></p><p style=""position: absolute; top: 30px; right: 30px; text-align:right; font-size:50px"""">N = 2</p>","d",0,73,904.035000130534,1,"agree",11,8,16,19,16,"32","male","The instruct ructions are clear.","Neither Agreement nor Disagreement","Moderate Agreement","Strong Disagreement","Moderate Disagreement","Moderate Disagreement","Moderate Agreement","Slight Agreement","Moderate Disagreement","Moderate Agreement","Slight Agreement","Very Strong Agreement","Moderate Disagreement","Moderate Agreement","Neither Agreement nor Disagreement","Slight Agreement","Moderate Disagreement","Strong Disagreement","Moderate Disagreement"
"15","AY1NVR3M3GYCI:3PMBY0YE289D4W4GBBCVWI3CTRKC91","practice",2,3,2,"NA","<p style=""font-size:100px""><b>b</b></p><p style=""position: absolute; top: 30px; right: 30px; text-align:right; font-size:50px"""">N = 2</p>","b",1,73,1308.32500010729,0,"agree",11,8,16,19,16,"32","male","The instruct ructions are clear.","Neither Agreement nor Disagreement","Moderate Agreement","Strong Disagreement","Moderate Disagreement","Moderate Disagreement","Moderate Agreement","Slight Agreement","Moderate Disagreement","Moderate Agreement","Slight Agreement","Very Strong Agreement","Moderate Disagreement","Moderate Agreement","Neither Agreement nor Disagreement","Slight Agreement","Moderate Disagreement","Strong Disagreement","Moderate Disagreement"
"16","AY1NVR3M3GYCI:3PMBY0YE289D4W4GBBCVWI3CTRKC91","practice",2,4,2,"NA","<p style=""font-size:100px""><b>B</b></p><p style=""position: absolute; top: 30px; right: 30px; text-align:right; font-size:50px"""">N = 2</p>","B",0,69,3036.17500141263,0,"agree",11,8,16,19,16,"32","male","The instruct ructions are clear.","Neither Agreement nor Disagreement","Moderate Agreement","Strong Disagreement","Moderate Disagreement","Moderate Disagreement","Moderate Agreement","Slight Agreement","Moderate Disagreement","Moderate Agreement","Slight Agreement","Very Strong Agreement","Moderate Disagreement","Moderate Agreement","Neither Agreement nor Disagreement","Slight Agreement","Moderate Disagreement","Strong Disagreement","Moderate Disagreement"
"17","AY1NVR3M3GYCI:3PMBY0YE289D4W4GBBCVWI3CTRKC91","practice",2,5,2,"NA","<p style=""font-size:100px""><b>V</b></p><p style=""position: absolute; top: 30px; right: 30px; text-align:right; font-size:50px"""">N = 2</p>","V",0,73,1359.99500006437,1,"agree",11,8,16,19,16,"32","male","The instruct ructions are clear.","Neither Agreement nor Disagreement","Moderate Agreement","Strong Disagreement","Moderate Disagreement","Moderate Disagreement","Moderate Agreement","Slight Agreement","Moderate Disagreement","Moderate Agreement","Slight Agreement","Very Strong Agreement","Moderate Disagreement","Moderate Agreement","Neither Agreement nor Disagreement","Slight Agreement","Moderate Disagreement","Strong Disagreement","Moderate Disagreement"
"18","AY1NVR3M3GYCI:3PMBY0YE289D4W4GBBCVWI3CTRKC91","practice",2,6,2,"NA","<p style=""font-size:100px""><b>B</b></p><p style=""position: absolute; top: 30px; right: 30px; text-align:right; font-size:50px"""">N = 2</p>","B",1,69,1245.05500122905,1,"agree",11,8,16,19,16,"32","male","The instruct ructions are clear.","Neither Agreement nor Disagreement","Moderate Agreement","Strong Disagreement","Moderate Disagreement","Moderate Disagreement","Moderate Agreement","Slight Agreement","Moderate Disagreement","Moderate Agreement","Slight Agreement","Very Strong Agreement","Moderate Disagreement","Moderate Agreement","Neither Agreement nor Disagreement","Slight Agreement","Moderate Disagreement","Strong Disagreement","Moderate Disagreement"
"19","AY1NVR3M3GYCI:3PMBY0YE289D4W4GBBCVWI3CTRKC91","practice",2,7,2,"NA","<p style=""font-size:100px""><b>p</b></p><p style=""position: absolute; top: 30px; right: 30px; text-align:right; font-size:50px"""">N = 2</p>","p",0,73,1151.95499919355,1,"agree",11,8,16,19,16,"32","male","The instruct ructions are clear.","Neither Agreement nor Disagreement","Moderate Agreement","Strong Disagreement","Moderate Disagreement","Moderate Disagreement","Moderate Agreement","Slight Agreement","Moderate Disagreement","Moderate Agreement","Slight Agreement","Very Strong Agreement","Moderate Disagreement","Moderate Agreement","Neither Agreement nor Disagreement","Slight Agreement","Moderate Disagreement","Strong Disagreement","Moderate Disagreement"
"20","AY1NVR3M3GYCI:3PMBY0YE289D4W4GBBCVWI3CTRKC91","practice",2,8,2,"NA","<p style=""font-size:100px""><b>V</b></p><p style=""position: absolute; top: 30px; right: 30px; text-align:right; font-size:50px"""">N = 2</p>","V",0,69,1285.80000065267,0,"agree",11,8,16,19,16,"32","male","The instruct ructions are clear.","Neither Agreement nor Disagreement","Moderate Agreement","Strong Disagreement","Moderate Disagreement","Moderate Disagreement","Moderate Agreement","Slight Agreement","Moderate Disagreement","Moderate Agreement","Slight Agreement","Very Strong Agreement","Moderate Disagreement","Moderate Agreement","Neither Agreement nor Disagreement","Slight Agreement","Moderate Disagreement","Strong Disagreement","Moderate Disagreement"
"21","AY1NVR3M3GYCI:3PMBY0YE289D4W4GBBCVWI3CTRKC91","practice",2,9,2,"NA","<p style=""font-size:100px""><b>p</b></p><p style=""position: absolute; top: 30px; right: 30px; text-align:right; font-size:50px"""">N = 2</p>","p",1,73,963.664999231696,0,"agree",11,8,16,19,16,"32","male","The instruct ructions are clear.","Neither Agreement nor Disagreement","Moderate Agreement","Strong Disagreement","Moderate Disagreement","Moderate Disagreement","Moderate Agreement","Slight Agreement","Moderate Disagreement","Moderate Agreement","Slight Agreement","Very Strong Agreement","Moderate Disagreement","Moderate Agreement","Neither Agreement nor Disagreement","Slight Agreement","Moderate Disagreement","Strong Disagreement","Moderate Disagreement"
"22","AY1NVR3M3GYCI:3PMBY0YE289D4W4GBBCVWI3CTRKC91","practice",2,10,2,"NA","<p style=""font-size:100px""><b>V</b></p><p style=""position: absolute; top: 30px; right: 30px; text-align:right; font-size:50px"""">N = 2</p>","V",1,69,1151.83500014246,1,"agree",11,8,16,19,16,"32","male","The instruct ructions are clear.","Neither Agreement nor Disagreement","Moderate Agreement","Strong Disagreement","Moderate Disagreement","Moderate Disagreement","Moderate Agreement","Slight Agreement","Moderate Disagreement","Moderate Agreement","Slight Agreement","Very Strong Agreement","Moderate Disagreement","Moderate Agreement","Neither Agreement nor Disagreement","Slight Agreement","Moderate Disagreement","Strong Disagreement","Moderate Disagreement"
"23","AY1NVR3M3GYCI:3PMBY0YE289D4W4GBBCVWI3CTRKC91","practice",2,11,2,"NA","<p style=""font-size:100px""><b>D</b></p><p style=""position: absolute; top: 30px; right: 30px; text-align:right; font-size:50px"""">N = 2</p>","D",0,73,1363.54999989271,1,"agree",11,8,16,19,16,"32","male","The instruct ructions are clear.","Neither Agreement nor Disagreement","Moderate Agreement","Strong Disagreement","Moderate Disagreement","Moderate Disagreement","Moderate Agreement","Slight Agreement","Moderate Disagreement","Moderate Agreement","Slight Agreement","Very Strong Agreement","Moderate Disagreement","Moderate Agreement","Neither Agreement nor Disagreement","Slight Agreement","Moderate Disagreement","Strong Disagreement","Moderate Disagreement"
"24","AY1NVR3M3GYCI:3PMBY0YE289D4W4GBBCVWI3CTRKC91","practice",2,12,2,"NA","<p style=""font-size:100px""><b>P</b></p><p style=""position: absolute; top: 30px; right: 30px; text-align:right; font-size:50px"""">N = 2</p>","P",0,69,1073.56500066817,0,"agree",11,8,16,19,16,"32","male","The instruct ructions are clear.","Neither Agreement nor Disagreement","Moderate Agreement","Strong Disagreement","Moderate Disagreement","Moderate Disagreement","Moderate Agreement","Slight Agreement","Moderate Disagreement","Moderate Agreement","Slight Agreement","Very Strong Agreement","Moderate Disagreement","Moderate Agreement","Neither Agreement nor Disagreement","Slight Agreement","Moderate Disagreement","Strong Disagreement","Moderate Disagreement"
"25","AY1NVR3M3GYCI:3PMBY0YE289D4W4GBBCVWI3CTRKC91","practice",3,1,3,"NA","<p style=""font-size:100px""><b>b</b></p><p style=""position: absolute; top: 30px; right: 30px; text-align:right; font-size:50px"""">N = 3</p>","b",0,73,2003.04000079632,1,"agree",11,8,16,19,16,"32","male","The instruct ructions are clear.","Neither Agreement nor Disagreement","Moderate Agreement","Strong Disagreement","Moderate Disagreement","Moderate Disagreement","Moderate Agreement","Slight Agreement","Moderate Disagreement","Moderate Agreement","Slight Agreement","Very Strong Agreement","Moderate Disagreement","Moderate Agreement","Neither Agreement nor Disagreement","Slight Agreement","Moderate Disagreement","Strong Disagreement","Moderate Disagreement"
"26","AY1NVR3M3GYCI:3PMBY0YE289D4W4GBBCVWI3CTRKC91","practice",3,2,3,"NA","<p style=""font-size:100px""><b>g</b></p><p style=""position: absolute; top: 30px; right: 30px; text-align:right; font-size:50px"""">N = 3</p>","g",0,73,1182.46500007808,1,"agree",11,8,16,19,16,"32","male","The instruct ructions are clear.","Neither Agreement nor Disagreement","Moderate Agreement","Strong Disagreement","Moderate Disagreement","Moderate Disagreement","Moderate Agreement","Slight Agreement","Moderate Disagreement","Moderate Agreement","Slight Agreement","Very Strong Agreement","Moderate Disagreement","Moderate Agreement","Neither Agreement nor Disagreement","Slight Agreement","Moderate Disagreement","Strong Disagreement","Moderate Disagreement"
"27","AY1NVR3M3GYCI:3PMBY0YE289D4W4GBBCVWI3CTRKC91","practice",3,3,3,"NA","<p style=""font-size:100px""><b>T</b></p><p style=""position: absolute; top: 30px; right: 30px; text-align:right; font-size:50px"""">N = 3</p>","T",0,73,830.350000411272,1,"agree",11,8,16,19,16,"32","male","The instruct ructions are clear.","Neither Agreement nor Disagreement","Moderate Agreement","Strong Disagreement","Moderate Disagreement","Moderate Disagreement","Moderate Agreement","Slight Agreement","Moderate Disagreement","Moderate Agreement","Slight Agreement","Very Strong Agreement","Moderate Disagreement","Moderate Agreement","Neither Agreement nor Disagreement","Slight Agreement","Moderate Disagreement","Strong Disagreement","Moderate Disagreement"
"28","AY1NVR3M3GYCI:3PMBY0YE289D4W4GBBCVWI3CTRKC91","practice",3,4,3,"NA","<p style=""font-size:100px""><b>b</b></p><p style=""position: absolute; top: 30px; right: 30px; text-align:right; font-size:50px"""">N = 3</p>","b",1,73,862.890001386404,0,"agree",11,8,16,19,16,"32","male","The instruct ructions are clear.","Neither Agreement nor Disagreement","Moderate Agreement","Strong Disagreement","Moderate Disagreement","Moderate Disagreement","Moderate Agreement","Slight Agreement","Moderate Disagreement","Moderate Agreement","Slight Agreement","Very Strong Agreement","Moderate Disagreement","Moderate Agreement","Neither Agreement nor Disagreement","Slight Agreement","Moderate Disagreement","Strong Disagreement","Moderate Disagreement"
"29","AY1NVR3M3GYCI:3PMBY0YE289D4W4GBBCVWI3CTRKC91","practice",3,5,3,"NA","<p style=""font-size:100px""><b>t</b></p><p style=""position: absolute; top: 30px; right: 30px; text-align:right; font-size:50px"""">N = 3</p>","t",0,73,1624.54000115395,1,"agree",11,8,16,19,16,"32","male","The instruct ructions are clear.","Neither Agreement nor Disagreement","Moderate Agreement","Strong Disagreement","Moderate Disagreement","Moderate Disagreement","Moderate Agreement","Slight Agreement","Moderate Disagreement","Moderate Agreement","Slight Agreement","Very Strong Agreement","Moderate Disagreement","Moderate Agreement","Neither Agreement nor Disagreement","Slight Agreement","Moderate Disagreement","Strong Disagreement","Moderate Disagreement"
"30","AY1NVR3M3GYCI:3PMBY0YE289D4W4GBBCVWI3CTRKC91","practice",3,6,3,"NA","<p style=""font-size:100px""><b>T</b></p><p style=""position: absolute; top: 30px; right: 30px; text-align:right; font-size:50px"""">N = 3</p>","T",1,69,1999.0200009197,1,"agree",11,8,16,19,16,"32","male","The instruct ructions are clear.","Neither Agreement nor Disagreement","Moderate Agreement","Strong Disagreement","Moderate Disagreement","Moderate Disagreement","Moderate Agreement","Slight Agreement","Moderate Disagreement","Moderate Agreement","Slight Agreement","Very Strong Agreement","Moderate Disagreement","Moderate Agreement","Neither Agreement nor Disagreement","Slight Agreement","Moderate Disagreement","Strong Disagreement","Moderate Disagreement"
"31","AY1NVR3M3GYCI:3PMBY0YE289D4W4GBBCVWI3CTRKC91","practice",3,7,3,"NA","<p style=""font-size:100px""><b>b</b></p><p style=""position: absolute; top: 30px; right: 30px; text-align:right; font-size:50px"""">N = 3</p>","b",1,69,2175.68499967456,1,"agree",11,8,16,19,16,"32","male","The instruct ructions are clear.","Neither Agreement nor Disagreement","Moderate Agreement","Strong Disagreement","Moderate Disagreement","Moderate Disagreement","Moderate Agreement","Slight Agreement","Moderate Disagreement","Moderate Agreement","Slight Agreement","Very Strong Agreement","Moderate Disagreement","Moderate Agreement","Neither Agreement nor Disagreement","Slight Agreement","Moderate Disagreement","Strong Disagreement","Moderate Disagreement"
"32","AY1NVR3M3GYCI:3PMBY0YE289D4W4GBBCVWI3CTRKC91","practice",3,8,3,"NA","<p style=""font-size:100px""><b>g</b></p><p style=""position: absolute; top: 30px; right: 30px; text-align:right; font-size:50px"""">N = 3</p>","g",0,69,1065.46000018716,0,"agree",11,8,16,19,16,"32","male","The instruct ructions are clear.","Neither Agreement nor Disagreement","Moderate Agreement","Strong Disagreement","Moderate Disagreement","Moderate Disagreement","Moderate Agreement","Slight Agreement","Moderate Disagreement","Moderate Agreement","Slight Agreement","Very Strong Agreement","Moderate Disagreement","Moderate Agreement","Neither Agreement nor Disagreement","Slight Agreement","Moderate Disagreement","Strong Disagreement","Moderate Disagreement"
"33","AY1NVR3M3GYCI:3PMBY0YE289D4W4GBBCVWI3CTRKC91","practice",3,9,3,"NA","<p style=""font-size:100px""><b>d</b></p><p style=""position: absolute; top: 30px; right: 30px; text-align:right; font-size:50px"""">N = 3</p>","d",0,73,907.980000600219,1,"agree",11,8,16,19,16,"32","male","The instruct ructions are clear.","Neither Agreement nor Disagreement","Moderate Agreement","Strong Disagreement","Moderate Disagreement","Moderate Disagreement","Moderate Agreement","Slight Agreement","Moderate Disagreement","Moderate Agreement","Slight Agreement","Very Strong Agreement","Moderate Disagreement","Moderate Agreement","Neither Agreement nor Disagreement","Slight Agreement","Moderate Disagreement","Strong Disagreement","Moderate Disagreement"
"34","AY1NVR3M3GYCI:3PMBY0YE289D4W4GBBCVWI3CTRKC91","practice",3,10,3,"NA","<p style=""font-size:100px""><b>b</b></p><p style=""position: absolute; top: 30px; right: 30px; text-align:right; font-size:50px"""">N = 3</p>","b",1,73,1509.37999971211,0,"agree",11,8,16,19,16,"32","male","The instruct ructions are clear.","Neither Agreement nor Disagreement","Moderate Agreement","Strong Disagreement","Moderate Disagreement","Moderate Disagreement","Moderate Agreement","Slight Agreement","Moderate Disagreement","Moderate Agreement","Slight Agreement","Very Strong Agreement","Moderate Disagreement","Moderate Agreement","Neither Agreement nor Disagreement","Slight Agreement","Moderate Disagreement","Strong Disagreement","Moderate Disagreement"
"35","AY1NVR3M3GYCI:3PMBY0YE289D4W4GBBCVWI3CTRKC91","practice",3,11,3,"NA","<p style=""font-size:100px""><b>P</b></p><p style=""position: absolute; top: 30px; right: 30px; text-align:right; font-size:50px"""">N = 3</p>","P",0,73,1471.19999863207,1,"agree",11,8,16,19,16,"32","male","The instruct ructions are clear.","Neither Agreement nor Disagreement","Moderate Agreement","Strong Disagreement","Moderate Disagreement","Moderate Disagreement","Moderate Agreement","Slight Agreement","Moderate Disagreement","Moderate Agreement","Slight Agreement","Very Strong Agreement","Moderate Disagreement","Moderate Agreement","Neither Agreement nor Disagreement","Slight Agreement","Moderate Disagreement","Strong Disagreement","Moderate Disagreement"
"36","AY1NVR3M3GYCI:3PMBY0YE289D4W4GBBCVWI3CTRKC91","practice",3,12,3,"NA","<p style=""font-size:100px""><b>B</b></p><p style=""position: absolute; top: 30px; right: 30px; text-align:right; font-size:50px"""">N = 3</p>","B",0,73,1556.5750002861,1,"agree",11,8,16,19,16,"32","male","The instruct ructions are clear.","Neither Agreement nor Disagreement","Moderate Agreement","Strong Disagreement","Moderate Disagreement","Moderate Disagreement","Moderate Agreement","Slight Agreement","Moderate Disagreement","Moderate Agreement","Slight Agreement","Very Strong Agreement","Moderate Disagreement","Moderate Agreement","Neither Agreement nor Disagreement","Slight Agreement","Moderate Disagreement","Strong Disagreement","Moderate Disagreement"
"37","AY1NVR3M3GYCI:3PMBY0YE289D4W4GBBCVWI3CTRKC91","1",1,1,1,"50","<p style=""font-size:100px""><b>t</b></p><p style=""position: absolute; top: 30px; right: 30px; text-align:right; font-size:50px"""">N = 1</p>","t",0,NA,NA,0,"agree",11,8,16,19,16,"32","male","The instruct ructions are clear.","Neither Agreement nor Disagreement","Moderate Agreement","Strong Disagreement","Moderate Disagreement","Moderate Disagreement","Moderate Agreement","Slight Agreement","Moderate Disagreement","Moderate Agreement","Slight Agreement","Very Strong Agreement","Moderate Disagreement","Moderate Agreement","Neither Agreement nor Disagreement","Slight Agreement","Moderate Disagreement","Strong Disagreement","Moderate Disagreement"
"38","AY1NVR3M3GYCI:3PMBY0YE289D4W4GBBCVWI3CTRKC91","1",1,2,1,"50","<p style=""font-size:100px""><b>V</b></p><p style=""position: absolute; top: 30px; right: 30px; text-align:right; font-size:50px"""">N = 1</p>","V",0,NA,NA,0,"agree",11,8,16,19,16,"32","male","The instruct ructions are clear.","Neither Agreement nor Disagreement","Moderate Agreement","Strong Disagreement","Moderate Disagreement","Moderate Disagreement","Moderate Agreement","Slight Agreement","Moderate Disagreement","Moderate Agreement","Slight Agreement","Very Strong Agreement","Moderate Disagreement","Moderate Agreement","Neither Agreement nor Disagreement","Slight Agreement","Moderate Disagreement","Strong Disagreement","Moderate Disagreement"
"39","AY1NVR3M3GYCI:3PMBY0YE289D4W4GBBCVWI3CTRKC91","1",1,3,1,"50","<p style=""font-size:100px""><b>V</b></p><p style=""position: absolute; top: 30px; right: 30px; text-align:right; font-size:50px"""">N = 1</p>","V",0,NA,NA,0,"agree",11,8,16,19,16,"32","male","The instruct ructions are clear.","Neither Agreement nor Disagreement","Moderate Agreement","Strong Disagreement","Moderate Disagreement","Moderate Disagreement","Moderate Agreement","Slight Agreement","Moderate Disagreement","Moderate Agreement","Slight Agreement","Very Strong Agreement","Moderate Disagreement","Moderate Agreement","Neither Agreement nor Disagreement","Slight Agreement","Moderate Disagreement","Strong Disagreement","Moderate Disagreement"
"40","AY1NVR3M3GYCI:3PMBY0YE289D4W4GBBCVWI3CTRKC91","1",1,4,1,"50","<p style=""font-size:100px""><b>t</b></p><p style=""position: absolute; top: 30px; right: 30px; text-align:right; font-size:50px"""">N = 1</p>","t",0,NA,NA,0,"agree",11,8,16,19,16,"32","male","The instruct ructions are clear.","Neither Agreement nor Disagreement","Moderate Agreement","Strong Disagreement","Moderate Disagreement","Moderate Disagreement","Moderate Agreement","Slight Agreement","Moderate Disagreement","Moderate Agreement","Slight Agreement","Very Strong Agreement","Moderate Disagreement","Moderate Agreement","Neither Agreement nor Disagreement","Slight Agreement","Moderate Disagreement","Strong Disagreement","Moderate Disagreement"
"41","AY1NVR3M3GYCI:3PMBY0YE289D4W4GBBCVWI3CTRKC91","1",1,5,1,"50","<p style=""font-size:100px""><b>P</b></p><p style=""position: absolute; top: 30px; right: 30px; text-align:right; font-size:50px"""">N = 1</p>","P",0,NA,NA,0,"agree",11,8,16,19,16,"32","male","The instruct ructions are clear.","Neither Agreement nor Disagreement","Moderate Agreement","Strong Disagreement","Moderate Disagreement","Moderate Disagreement","Moderate Agreement","Slight Agreement","Moderate Disagreement","Moderate Agreement","Slight Agreement","Very Strong Agreement","Moderate Disagreement","Moderate Agreement","Neither Agreement nor Disagreement","Slight Agreement","Moderate Disagreement","Strong Disagreement","Moderate Disagreement"
"42","AY1NVR3M3GYCI:3PMBY0YE289D4W4GBBCVWI3CTRKC91","1",1,6,1,"50","<p style=""font-size:100px""><b>P</b></p><p style=""position: absolute; top: 30px; right: 30px; text-align:right; font-size:50px"""">N = 1</p>","P",0,NA,NA,0,"agree",11,8,16,19,16,"32","male","The instruct ructions are clear.","Neither Agreement nor Disagreement","Moderate Agreement","Strong Disagreement","Moderate Disagreement","Moderate Disagreement","Moderate Agreement","Slight Agreement","Moderate Disagreement","Moderate Agreement","Slight Agreement","Very Strong Agreement","Moderate Disagreement","Moderate Agreement","Neither Agreement nor Disagreement","Slight Agreement","Moderate Disagreement","Strong Disagreement","Moderate Disagreement"
"43","AY1NVR3M3GYCI:3PMBY0YE289D4W4GBBCVWI3CTRKC91","1",1,7,1,"50","<p style=""font-size:100px""><b>P</b></p><p style=""position: absolute; top: 30px; right: 30px; text-align:right; font-size:50px"""">N = 1</p>","P",0,69,113.989999517798,0,"agree",11,8,16,19,16,"32","male","The instruct ructions are clear.","Neither Agreement nor Disagreement","Moderate Agreement","Strong Disagreement","Moderate Disagreement","Moderate Disagreement","Moderate Agreement","Slight Agreement","Moderate Disagreement","Moderate Agreement","Slight Agreement","Very Strong Agreement","Moderate Disagreement","Moderate Agreement","Neither Agreement nor Disagreement","Slight Agreement","Moderate Disagreement","Strong Disagreement","Moderate Disagreement"
"44","AY1NVR3M3GYCI:3PMBY0YE289D4W4GBBCVWI3CTRKC91","1",1,8,1,"50","<p style=""font-size:100px""><b>P</b></p><p style=""position: absolute; top: 30px; right: 30px; text-align:right; font-size:50px"""">N = 1</p>","P",0,NA,NA,0,"agree",11,8,16,19,16,"32","male","The instruct ructions are clear.","Neither Agreement nor Disagreement","Moderate Agreement","Strong Disagreement","Moderate Disagreement","Moderate Disagreement","Moderate Agreement","Slight Agreement","Moderate Disagreement","Moderate Agreement","Slight Agreement","Very Strong Agreement","Moderate Disagreement","Moderate Agreement","Neither Agreement nor Disagreement","Slight Agreement","Moderate Disagreement","Strong Disagreement","Moderate Disagreement"
"45","AY1NVR3M3GYCI:3PMBY0YE289D4W4GBBCVWI3CTRKC91","1",1,9,1,"50","<p style=""font-size:100px""><b>v</b></p><p style=""position: absolute; top: 30px; right: 30px; text-align:right; font-size:50px"""">N = 1</p>","v",0,73,875.429999083281,1,"agree",11,8,16,19,16,"32","male","The instruct ructions are clear.","Neither Agreement nor Disagreement","Moderate Agreement","Strong Disagreement","Moderate Disagreement","Moderate Disagreement","Moderate Agreement","Slight Agreement","Moderate Disagreement","Moderate Agreement","Slight Agreement","Very Strong Agreement","Moderate Disagreement","Moderate Agreement","Neither Agreement nor Disagreement","Slight Agreement","Moderate Disagreement","Strong Disagreement","Moderate Disagreement"
"46","AY1NVR3M3GYCI:3PMBY0YE289D4W4GBBCVWI3CTRKC91","1",1,10,1,"50","<p style=""font-size:100px""><b>D</b></p><p style=""position: absolute; top: 30px; right: 30px; text-align:right; font-size:50px"""">N = 1</p>","D",0,NA,NA,0,"agree",11,8,16,19,16,"32","male","The instruct ructions are clear.","Neither Agreement nor Disagreement","Moderate Agreement","Strong Disagreement","Moderate Disagreement","Moderate Disagreement","Moderate Agreement","Slight Agreement","Moderate Disagreement","Moderate Agreement","Slight Agreement","Very Strong Agreement","Moderate Disagreement","Moderate Agreement","Neither Agreement nor Disagreement","Slight Agreement","Moderate Disagreement","Strong Disagreement","Moderate Disagreement"
"47","AY1NVR3M3GYCI:3PMBY0YE289D4W4GBBCVWI3CTRKC91","1",1,11,1,"50","<p style=""font-size:100px""><b>B</b></p><p style=""position: absolute; top: 30px; right: 30px; text-align:right; font-size:50px"""">N = 1</p>","B",0,NA,NA,0,"agree",11,8,16,19,16,"32","male","The instruct ructions are clear.","Neither Agreement nor Disagreement","Moderate Agreement","Strong Disagreement","Moderate Disagreement","Moderate Disagreement","Moderate Agreement","Slight Agreement","Moderate Disagreement","Moderate Agreement","Slight Agreement","Very Strong Agreement","Moderate Disagreement","Moderate Agreement","Neither Agreement nor Disagreement","Slight Agreement","Moderate Disagreement","Strong Disagreement","Moderate Disagreement"
"48","AY1NVR3M3GYCI:3PMBY0YE289D4W4GBBCVWI3CTRKC91","1",1,12,1,"50","<p style=""font-size:100px""><b>t</b></p><p style=""position: absolute; top: 30px; right: 30px; text-align:right; font-size:50px"""">N = 1</p>","t",0,NA,NA,0,"agree",11,8,16,19,16,"32","male","The instruct ructions are clear.","Neither Agreement nor Disagreement","Moderate Agreement","Strong Disagreement","Moderate Disagreement","Moderate Disagreement","Moderate Agreement","Slight Agreement","Moderate Disagreement","Moderate Agreement","Slight Agreement","Very Strong Agreement","Moderate Disagreement","Moderate Agreement","Neither Agreement nor Disagreement","Slight Agreement","Moderate Disagreement","Strong Disagreement","Moderate Disagreement"
"49","AY1NVR3M3GYCI:3PMBY0YE289D4W4GBBCVWI3CTRKC91","1",2,1,3,"50","<p style=""font-size:100px""><b>d</b></p><p style=""position: absolute; top: 30px; right: 30px; text-align:right; font-size:50px"""">N = 3</p>","d",0,73,738.150000572205,1,"agree",8,13,19,18,17,"32","male","The instruct ructions are clear.","Neither Agreement nor Disagreement","Moderate Agreement","Strong Disagreement","Moderate Disagreement","Moderate Disagreement","Moderate Agreement","Slight Agreement","Moderate Disagreement","Moderate Agreement","Slight Agreement","Very Strong Agreement","Moderate Disagreement","Moderate Agreement","Neither Agreement nor Disagreement","Slight Agreement","Moderate Disagreement","Strong Disagreement","Moderate Disagreement"
"50","AY1NVR3M3GYCI:3PMBY0YE289D4W4GBBCVWI3CTRKC91","1",2,2,3,"50","<p style=""font-size:100px""><b>V</b></p><p style=""position: absolute; top: 30px; right: 30px; text-align:right; font-size:50px"""">N = 3</p>","V",0,73,782.60499984026,1,"agree",8,13,19,18,17,"32","male","The instruct ructions are clear.","Neither Agreement nor Disagreement","Moderate Agreement","Strong Disagreement","Moderate Disagreement","Moderate Disagreement","Moderate Agreement","Slight Agreement","Moderate Disagreement","Moderate Agreement","Slight Agreement","Very Strong Agreement","Moderate Disagreement","Moderate Agreement","Neither Agreement nor Disagreement","Slight Agreement","Moderate Disagreement","Strong Disagreement","Moderate Disagreement"
"51","AY1NVR3M3GYCI:3PMBY0YE289D4W4GBBCVWI3CTRKC91","1",2,3,3,"50","<p style=""font-size:100px""><b>t</b></p><p style=""position: absolute; top: 30px; right: 30px; text-align:right; font-size:50px"""">N = 3</p>","t",0,73,730.505000799894,1,"agree",8,13,19,18,17,"32","male","The instruct ructions are clear.","Neither Agreement nor Disagreement","Moderate Agreement","Strong Disagreement","Moderate Disagreement","Moderate Disagreement","Moderate Agreement","Slight Agreement","Moderate Disagreement","Moderate Agreement","Slight Agreement","Very Strong Agreement","Moderate Disagreement","Moderate Agreement","Neither Agreement nor Disagreement","Slight Agreement","Moderate Disagreement","Strong Disagreement","Moderate Disagreement"
"52","AY1NVR3M3GYCI:3PMBY0YE289D4W4GBBCVWI3CTRKC91","1",2,4,3,"50","<p style=""font-size:100px""><b>d</b></p><p style=""position: absolute; top: 30px; right: 30px; text-align:right; font-size:50px"""">N = 3</p>","d",0,69,662.175001576543,0,"agree",8,13,19,18,17,"32","male","The instruct ructions are clear.","Neither Agreement nor Disagreement","Moderate Agreement","Strong Disagreement","Moderate Disagreement","Moderate Disagreement","Moderate Agreement","Slight Agreement","Moderate Disagreement","Moderate Agreement","Slight Agreement","Very Strong Agreement","Moderate Disagreement","Moderate Agreement","Neither Agreement nor Disagreement","Slight Agreement","Moderate Disagreement","Strong Disagreement","Moderate Disagreement"
"53","AY1NVR3M3GYCI:3PMBY0YE289D4W4GBBCVWI3CTRKC91","1",2,5,3,"50","<p style=""font-size:100px""><b>D</b></p><p style=""position: absolute; top: 30px; right: 30px; text-align:right; font-size:50px"""">N = 3</p>","D",0,73,792.139999568462,1,"agree",8,13,19,18,17,"32","male","The instruct ructions are clear.","Neither Agreement nor Disagreement","Moderate Agreement","Strong Disagreement","Moderate Disagreement","Moderate Disagreement","Moderate Agreement","Slight Agreement","Moderate Disagreement","Moderate Agreement","Slight Agreement","Very Strong Agreement","Moderate Disagreement","Moderate Agreement","Neither Agreement nor Disagreement","Slight Agreement","Moderate Disagreement","Strong Disagreement","Moderate Disagreement"
"54","AY1NVR3M3GYCI:3PMBY0YE289D4W4GBBCVWI3CTRKC91","1",2,6,3,"50","<p style=""font-size:100px""><b>t</b></p><p style=""position: absolute; top: 30px; right: 30px; text-align:right; font-size:50px"""">N = 3</p>","t",0,69,841.114999726415,0,"agree",8,13,19,18,17,"32","male","The instruct ructions are clear.","Neither Agreement nor Disagreement","Moderate Agreement","Strong Disagreement","Moderate Disagreement","Moderate Disagreement","Moderate Agreement","Slight Agreement","Moderate Disagreement","Moderate Agreement","Slight Agreement","Very Strong Agreement","Moderate Disagreement","Moderate Agreement","Neither Agreement nor Disagreement","Slight Agreement","Moderate Disagreement","Strong Disagreement","Moderate Disagreement"
"55","AY1NVR3M3GYCI:3PMBY0YE289D4W4GBBCVWI3CTRKC91","1",2,7,3,"50","<p style=""font-size:100px""><b>B</b></p><p style=""position: absolute; top: 30px; right: 30px; text-align:right; font-size:50px"""">N = 3</p>","B",0,73,953.004999086261,1,"agree",8,13,19,18,17,"32","male","The instruct ructions are clear.","Neither Agreement nor Disagreement","Moderate Agreement","Strong Disagreement","Moderate Disagreement","Moderate Disagreement","Moderate Agreement","Slight Agreement","Moderate Disagreement","Moderate Agreement","Slight Agreement","Very Strong Agreement","Moderate Disagreement","Moderate Agreement","Neither Agreement nor Disagreement","Slight Agreement","Moderate Disagreement","Strong Disagreement","Moderate Disagreement"
"56","AY1NVR3M3GYCI:3PMBY0YE289D4W4GBBCVWI3CTRKC91","1",2,8,3,"50","<p style=""font-size:100px""><b>V</b></p><p style=""position: absolute; top: 30px; right: 30px; text-align:right; font-size:50px"""">N = 3</p>","V",0,NA,NA,0,"agree",8,13,19,18,17,"32","male","The instruct ructions are clear.","Neither Agreement nor Disagreement","Moderate Agreement","Strong Disagreement","Moderate Disagreement","Moderate Disagreement","Moderate Agreement","Slight Agreement","Moderate Disagreement","Moderate Agreement","Slight Agreement","Very Strong Agreement","Moderate Disagreement","Moderate Agreement","Neither Agreement nor Disagreement","Slight Agreement","Moderate Disagreement","Strong Disagreement","Moderate Disagreement"
"57","AY1NVR3M3GYCI:3PMBY0YE289D4W4GBBCVWI3CTRKC91","1",2,9,3,"50","<p style=""font-size:100px""><b>d</b></p><p style=""position: absolute; top: 30px; right: 30px; text-align:right; font-size:50px"""">N = 3</p>","d",0,NA,NA,0,"agree",8,13,19,18,17,"32","male","The instruct ructions are clear.","Neither Agreement nor Disagreement","Moderate Agreement","Strong Disagreement","Moderate Disagreement","Moderate Disagreement","Moderate Agreement","Slight Agreement","Moderate Disagreement","Moderate Agreement","Slight Agreement","Very Strong Agreement","Moderate Disagreement","Moderate Agreement","Neither Agreement nor Disagreement","Slight Agreement","Moderate Disagreement","Strong Disagreement","Moderate Disagreement"
"58","AY1NVR3M3GYCI:3PMBY0YE289D4W4GBBCVWI3CTRKC91","1",2,10,3,"50","<p style=""font-size:100px""><b>B</b></p><p style=""position: absolute; top: 30px; right: 30px; text-align:right; font-size:50px"""">N = 3</p>","B",0,73,1103.81500050426,1,"agree",8,13,19,18,17,"32","male","The instruct ructions are clear.","Neither Agreement nor Disagreement","Moderate Agreement","Strong Disagreement","Moderate Disagreement","Moderate Disagreement","Moderate Agreement","Slight Agreement","Moderate Disagreement","Moderate Agreement","Slight Agreement","Very Strong Agreement","Moderate Disagreement","Moderate Agreement","Neither Agreement nor Disagreement","Slight Agreement","Moderate Disagreement","Strong Disagreement","Moderate Disagreement"
"59","AY1NVR3M3GYCI:3PMBY0YE289D4W4GBBCVWI3CTRKC91","1",2,11,3,"50","<p style=""font-size:100px""><b>V</b></p><p style=""position: absolute; top: 30px; right: 30px; text-align:right; font-size:50px"""">N = 3</p>","V",0,73,721.400000154972,1,"agree",8,13,19,18,17,"32","male","The instruct ructions are clear.","Neither Agreement nor Disagreement","Moderate Agreement","Strong Disagreement","Moderate Disagreement","Moderate Disagreement","Moderate Agreement","Slight Agreement","Moderate Disagreement","Moderate Agreement","Slight Agreement","Very Strong Agreement","Moderate Disagreement","Moderate Agreement","Neither Agreement nor Disagreement","Slight Agreement","Moderate Disagreement","Strong Disagreement","Moderate Disagreement"
"60","AY1NVR3M3GYCI:3PMBY0YE289D4W4GBBCVWI3CTRKC91","1",2,12,3,"50","<p style=""font-size:100px""><b>b</b></p><p style=""position: absolute; top: 30px; right: 30px; text-align:right; font-size:50px"""">N = 3</p>","b",0,73,961.27999946475,1,"agree",8,13,19,18,17,"32","male","The instruct ructions are clear.","Neither Agreement nor Disagreement","Moderate Agreement","Strong Disagreement","Moderate Disagreement","Moderate Disagreement","Moderate Agreement","Slight Agreement","Moderate Disagreement","Moderate Agreement","Slight Agreement","Very Strong Agreement","Moderate Disagreement","Moderate Agreement","Neither Agreement nor Disagreement","Slight Agreement","Moderate Disagreement","Strong Disagreement","Moderate Disagreement"
"61","AY1NVR3M3GYCI:3PMBY0YE289D4W4GBBCVWI3CTRKC91","1",3,1,1,"5","<p style=""font-size:100px""><b>D</b></p><p style=""position: absolute; top: 30px; right: 30px; text-align:right; font-size:50px"""">N = 1</p>","D",0,73,823.534999042749,1,"agree",9,13,16,14,16,"32","male","The instruct ructions are clear.","Neither Agreement nor Disagreement","Moderate Agreement","Strong Disagreement","Moderate Disagreement","Moderate Disagreement","Moderate Agreement","Slight Agreement","Moderate Disagreement","Moderate Agreement","Slight Agreement","Very Strong Agreement","Moderate Disagreement","Moderate Agreement","Neither Agreement nor Disagreement","Slight Agreement","Moderate Disagreement","Strong Disagreement","Moderate Disagreement"
"62","AY1NVR3M3GYCI:3PMBY0YE289D4W4GBBCVWI3CTRKC91","1",3,2,1,"5","<p style=""font-size:100px""><b>P</b></p><p style=""position: absolute; top: 30px; right: 30px; text-align:right; font-size:50px"""">N = 1</p>","P",0,73,713.65499868989,1,"agree",9,13,16,14,16,"32","male","The instruct ructions are clear.","Neither Agreement nor Disagreement","Moderate Agreement","Strong Disagreement","Moderate Disagreement","Moderate Disagreement","Moderate Agreement","Slight Agreement","Moderate Disagreement","Moderate Agreement","Slight Agreement","Very Strong Agreement","Moderate Disagreement","Moderate Agreement","Neither Agreement nor Disagreement","Slight Agreement","Moderate Disagreement","Strong Disagreement","Moderate Disagreement"
"63","AY1NVR3M3GYCI:3PMBY0YE289D4W4GBBCVWI3CTRKC91","1",3,3,1,"5","<p style=""font-size:100px""><b>P</b></p><p style=""position: absolute; top: 30px; right: 30px; text-align:right; font-size:50px"""">N = 1</p>","P",0,NA,NA,0,"agree",9,13,16,14,16,"32","male","The instruct ructions are clear.","Neither Agreement nor Disagreement","Moderate Agreement","Strong Disagreement","Moderate Disagreement","Moderate Disagreement","Moderate Agreement","Slight Agreement","Moderate Disagreement","Moderate Agreement","Slight Agreement","Very Strong Agreement","Moderate Disagreement","Moderate Agreement","Neither Agreement nor Disagreement","Slight Agreement","Moderate Disagreement","Strong Disagreement","Moderate Disagreement"
"64","AY1NVR3M3GYCI:3PMBY0YE289D4W4GBBCVWI3CTRKC91","1",3,4,1,"5","<p style=""font-size:100px""><b>P</b></p><p style=""position: absolute; top: 30px; right: 30px; text-align:right; font-size:50px"""">N = 1</p>","P",0,NA,NA,0,"agree",9,13,16,14,16,"32","male","The instruct ructions are clear.","Neither Agreement nor Disagreement","Moderate Agreement","Strong Disagreement","Moderate Disagreement","Moderate Disagreement","Moderate Agreement","Slight Agreement","Moderate Disagreement","Moderate Agreement","Slight Agreement","Very Strong Agreement","Moderate Disagreement","Moderate Agreement","Neither Agreement nor Disagreement","Slight Agreement","Moderate Disagreement","Strong Disagreement","Moderate Disagreement"
"65","AY1NVR3M3GYCI:3PMBY0YE289D4W4GBBCVWI3CTRKC91","1",3,5,1,"5","<p style=""font-size:100px""><b>P</b></p><p style=""position: absolute; top: 30px; right: 30px; text-align:right; font-size:50px"""">N = 1</p>","P",0,NA,NA,0,"agree",9,13,16,14,16,"32","male","The instruct ructions are clear.","Neither Agreement nor Disagreement","Moderate Agreement","Strong Disagreement","Moderate Disagreement","Moderate Disagreement","Moderate Agreement","Slight Agreement","Moderate Disagreement","Moderate Agreement","Slight Agreement","Very Strong Agreement","Moderate Disagreement","Moderate Agreement","Neither Agreement nor Disagreement","Slight Agreement","Moderate Disagreement","Strong Disagreement","Moderate Disagreement"
"66","AY1NVR3M3GYCI:3PMBY0YE289D4W4GBBCVWI3CTRKC91","1",3,6,1,"5","<p style=""font-size:100px""><b>g</b></p><p style=""position: absolute; top: 30px; right: 30px; text-align:right; font-size:50px"""">N = 1</p>","g",0,73,787.200000137091,1,"agree",9,13,16,14,16,"32","male","The instruct ructions are clear.","Neither Agreement nor Disagreement","Moderate Agreement","Strong Disagreement","Moderate Disagreement","Moderate Disagreement","Moderate Agreement","Slight Agreement","Moderate Disagreement","Moderate Agreement","Slight Agreement","Very Strong Agreement","Moderate Disagreement","Moderate Agreement","Neither Agreement nor Disagreement","Slight Agreement","Moderate Disagreement","Strong Disagreement","Moderate Disagreement"
"67","AY1NVR3M3GYCI:3PMBY0YE289D4W4GBBCVWI3CTRKC91","1",3,7,1,"5","<p style=""font-size:100px""><b>g</b></p><p style=""position: absolute; top: 30px; right: 30px; text-align:right; font-size:50px"""">N = 1</p>","g",0,73,617.225000634789,1,"agree",9,13,16,14,16,"32","male","The instruct ructions are clear.","Neither Agreement nor Disagreement","Moderate Agreement","Strong Disagreement","Moderate Disagreement","Moderate Disagreement","Moderate Agreement","Slight Agreement","Moderate Disagreement","Moderate Agreement","Slight Agreement","Very Strong Agreement","Moderate Disagreement","Moderate Agreement","Neither Agreement nor Disagreement","Slight Agreement","Moderate Disagreement","Strong Disagreement","Moderate Disagreement"
"68","AY1NVR3M3GYCI:3PMBY0YE289D4W4GBBCVWI3CTRKC91","1",3,8,1,"5","<p style=""font-size:100px""><b>T</b></p><p style=""position: absolute; top: 30px; right: 30px; text-align:right; font-size:50px"""">N = 1</p>","T",0,73,776.465000584722,1,"agree",9,13,16,14,16,"32","male","The instruct ructions are clear.","Neither Agreement nor Disagreement","Moderate Agreement","Strong Disagreement","Moderate Disagreement","Moderate Disagreement","Moderate Agreement","Slight Agreement","Moderate Disagreement","Moderate Agreement","Slight Agreement","Very Strong Agreement","Moderate Disagreement","Moderate Agreement","Neither Agreement nor Disagreement","Slight Agreement","Moderate Disagreement","Strong Disagreement","Moderate Disagreement"
"69","AY1NVR3M3GYCI:3PMBY0YE289D4W4GBBCVWI3CTRKC91","1",3,9,1,"5","<p style=""font-size:100px""><b>b</b></p><p style=""position: absolute; top: 30px; right: 30px; text-align:right; font-size:50px"""">N = 1</p>","b",0,73,688.455000519753,1,"agree",9,13,16,14,16,"32","male","The instruct ructions are clear.","Neither Agreement nor Disagreement","Moderate Agreement","Strong Disagreement","Moderate Disagreement","Moderate Disagreement","Moderate Agreement","Slight Agreement","Moderate Disagreement","Moderate Agreement","Slight Agreement","Very Strong Agreement","Moderate Disagreement","Moderate Agreement","Neither Agreement nor Disagreement","Slight Agreement","Moderate Disagreement","Strong Disagreement","Moderate Disagreement"
"70","AY1NVR3M3GYCI:3PMBY0YE289D4W4GBBCVWI3CTRKC91","1",3,10,1,"5","<p style=""font-size:100px""><b>p</b></p><p style=""position: absolute; top: 30px; right: 30px; text-align:right; font-size:50px"""">N = 1</p>","p",0,73,755.029998719692,1,"agree",9,13,16,14,16,"32","male","The instruct ructions are clear.","Neither Agreement nor Disagreement","Moderate Agreement","Strong Disagreement","Moderate Disagreement","Moderate Disagreement","Moderate Agreement","Slight Agreement","Moderate Disagreement","Moderate Agreement","Slight Agreement","Very Strong Agreement","Moderate Disagreement","Moderate Agreement","Neither Agreement nor Disagreement","Slight Agreement","Moderate Disagreement","Strong Disagreement","Moderate Disagreement"
"71","AY1NVR3M3GYCI:3PMBY0YE289D4W4GBBCVWI3CTRKC91","1",3,11,1,"5","<p style=""font-size:100px""><b>T</b></p><p style=""position: absolute; top: 30px; right: 30px; text-align:right; font-size:50px"""">N = 1</p>","T",0,NA,NA,0,"agree",9,13,16,14,16,"32","male","The instruct ructions are clear.","Neither Agreement nor Disagreement","Moderate Agreement","Strong Disagreement","Moderate Disagreement","Moderate Disagreement","Moderate Agreement","Slight Agreement","Moderate Disagreement","Moderate Agreement","Slight Agreement","Very Strong Agreement","Moderate Disagreement","Moderate Agreement","Neither Agreement nor Disagreement","Slight Agreement","Moderate Disagreement","Strong Disagreement","Moderate Disagreement"
"72","AY1NVR3M3GYCI:3PMBY0YE289D4W4GBBCVWI3CTRKC91","1",3,12,1,"5","<p style=""font-size:100px""><b>D</b></p><p style=""position: absolute; top: 30px; right: 30px; text-align:right; font-size:50px"""">N = 1</p>","D",0,73,738.005001097918,1,"agree",9,13,16,14,16,"32","male","The instruct ructions are clear.","Neither Agreement nor Disagreement","Moderate Agreement","Strong Disagreement","Moderate Disagreement","Moderate Disagreement","Moderate Agreement","Slight Agreement","Moderate Disagreement","Moderate Agreement","Slight Agreement","Very Strong Agreement","Moderate Disagreement","Moderate Agreement","Neither Agreement nor Disagreement","Slight Agreement","Moderate Disagreement","Strong Disagreement","Moderate Disagreement"
"73","AY1NVR3M3GYCI:3PMBY0YE289D4W4GBBCVWI3CTRKC91","1",4,1,3,"5","<p style=""font-size:100px""><b>g</b></p><p style=""position: absolute; top: 30px; right: 30px; text-align:right; font-size:50px"""">N = 3</p>","g",0,73,676.984999328852,1,"agree",10,13,18,18,17,"32","male","The instruct ructions are clear.","Neither Agreement nor Disagreement","Moderate Agreement","Strong Disagreement","Moderate Disagreement","Moderate Disagreement","Moderate Agreement","Slight Agreement","Moderate Disagreement","Moderate Agreement","Slight Agreement","Very Strong Agreement","Moderate Disagreement","Moderate Agreement","Neither Agreement nor Disagreement","Slight Agreement","Moderate Disagreement","Strong Disagreement","Moderate Disagreement"
"74","AY1NVR3M3GYCI:3PMBY0YE289D4W4GBBCVWI3CTRKC91","1",4,2,3,"5","<p style=""font-size:100px""><b>G</b></p><p style=""position: absolute; top: 30px; right: 30px; text-align:right; font-size:50px"""">N = 3</p>","G",0,73,575.640000402927,1,"agree",10,13,18,18,17,"32","male","The instruct ructions are clear.","Neither Agreement nor Disagreement","Moderate Agreement","Strong Disagreement","Moderate Disagreement","Moderate Disagreement","Moderate Agreement","Slight Agreement","Moderate Disagreement","Moderate Agreement","Slight Agreement","Very Strong Agreement","Moderate Disagreement","Moderate Agreement","Neither Agreement nor Disagreement","Slight Agreement","Moderate Disagreement","Strong Disagreement","Moderate Disagreement"
"75","AY1NVR3M3GYCI:3PMBY0YE289D4W4GBBCVWI3CTRKC91","1",4,3,3,"5","<p style=""font-size:100px""><b>d</b></p><p style=""position: absolute; top: 30px; right: 30px; text-align:right; font-size:50px"""">N = 3</p>","d",0,73,679.945001378655,1,"agree",10,13,18,18,17,"32","male","The instruct ructions are clear.","Neither Agreement nor Disagreement","Moderate Agreement","Strong Disagreement","Moderate Disagreement","Moderate Disagreement","Moderate Agreement","Slight Agreement","Moderate Disagreement","Moderate Agreement","Slight Agreement","Very Strong Agreement","Moderate Disagreement","Moderate Agreement","Neither Agreement nor Disagreement","Slight Agreement","Moderate Disagreement","Strong Disagreement","Moderate Disagreement"
"76","AY1NVR3M3GYCI:3PMBY0YE289D4W4GBBCVWI3CTRKC91","1",4,4,3,"5","<p style=""font-size:100px""><b>V</b></p><p style=""position: absolute; top: 30px; right: 30px; text-align:right; font-size:50px"""">N = 3</p>","V",0,73,758.83499905467,1,"agree",10,13,18,18,17,"32","male","The instruct ructions are clear.","Neither Agreement nor Disagreement","Moderate Agreement","Strong Disagreement","Moderate Disagreement","Moderate Disagreement","Moderate Agreement","Slight Agreement","Moderate Disagreement","Moderate Agreement","Slight Agreement","Very Strong Agreement","Moderate Disagreement","Moderate Agreement","Neither Agreement nor Disagreement","Slight Agreement","Moderate Disagreement","Strong Disagreement","Moderate Disagreement"
"77","AY1NVR3M3GYCI:3PMBY0YE289D4W4GBBCVWI3CTRKC91","1",4,5,3,"5","<p style=""font-size:100px""><b>G</b></p><p style=""position: absolute; top: 30px; right: 30px; text-align:right; font-size:50px"""">N = 3</p>","G",0,NA,NA,0,"agree",10,13,18,18,17,"32","male","The instruct ructions are clear.","Neither Agreement nor Disagreement","Moderate Agreement","Strong Disagreement","Moderate Disagreement","Moderate Disagreement","Moderate Agreement","Slight Agreement","Moderate Disagreement","Moderate Agreement","Slight Agreement","Very Strong Agreement","Moderate Disagreement","Moderate Agreement","Neither Agreement nor Disagreement","Slight Agreement","Moderate Disagreement","Strong Disagreement","Moderate Disagreement"
"78","AY1NVR3M3GYCI:3PMBY0YE289D4W4GBBCVWI3CTRKC91","1",4,6,3,"5","<p style=""font-size:100px""><b>T</b></p><p style=""position: absolute; top: 30px; right: 30px; text-align:right; font-size:50px"""">N = 3</p>","T",0,NA,NA,0,"agree",10,13,18,18,17,"32","male","The instruct ructions are clear.","Neither Agreement nor Disagreement","Moderate Agreement","Strong Disagreement","Moderate Disagreement","Moderate Disagreement","Moderate Agreement","Slight Agreement","Moderate Disagreement","Moderate Agreement","Slight Agreement","Very Strong Agreement","Moderate Disagreement","Moderate Agreement","Neither Agreement nor Disagreement","Slight Agreement","Moderate Disagreement","Strong Disagreement","Moderate Disagreement"
"79","AY1NVR3M3GYCI:3PMBY0YE289D4W4GBBCVWI3CTRKC91","1",4,7,3,"5","<p style=""font-size:100px""><b>V</b></p><p style=""position: absolute; top: 30px; right: 30px; text-align:right; font-size:50px"""">N = 3</p>","V",0,73,928.935000672936,1,"agree",10,13,18,18,17,"32","male","The instruct ructions are clear.","Neither Agreement nor Disagreement","Moderate Agreement","Strong Disagreement","Moderate Disagreement","Moderate Disagreement","Moderate Agreement","Slight Agreement","Moderate Disagreement","Moderate Agreement","Slight Agreement","Very Strong Agreement","Moderate Disagreement","Moderate Agreement","Neither Agreement nor Disagreement","Slight Agreement","Moderate Disagreement","Strong Disagreement","Moderate Disagreement"
"80","AY1NVR3M3GYCI:3PMBY0YE289D4W4GBBCVWI3CTRKC91","1",4,8,3,"5","<p style=""font-size:100px""><b>d</b></p><p style=""position: absolute; top: 30px; right: 30px; text-align:right; font-size:50px"""">N = 3</p>","d",0,73,647.534999996424,1,"agree",10,13,18,18,17,"32","male","The instruct ructions are clear.","Neither Agreement nor Disagreement","Moderate Agreement","Strong Disagreement","Moderate Disagreement","Moderate Disagreement","Moderate Agreement","Slight Agreement","Moderate Disagreement","Moderate Agreement","Slight Agreement","Very Strong Agreement","Moderate Disagreement","Moderate Agreement","Neither Agreement nor Disagreement","Slight Agreement","Moderate Disagreement","Strong Disagreement","Moderate Disagreement"
"81","AY1NVR3M3GYCI:3PMBY0YE289D4W4GBBCVWI3CTRKC91","1",4,9,3,"5","<p style=""font-size:100px""><b>T</b></p><p style=""position: absolute; top: 30px; right: 30px; text-align:right; font-size:50px"""">N = 3</p>","T",0,73,544.464999809861,1,"agree",10,13,18,18,17,"32","male","The instruct ructions are clear.","Neither Agreement nor Disagreement","Moderate Agreement","Strong Disagreement","Moderate Disagreement","Moderate Disagreement","Moderate Agreement","Slight Agreement","Moderate Disagreement","Moderate Agreement","Slight Agreement","Very Strong Agreement","Moderate Disagreement","Moderate Agreement","Neither Agreement nor Disagreement","Slight Agreement","Moderate Disagreement","Strong Disagreement","Moderate Disagreement"
"82","AY1NVR3M3GYCI:3PMBY0YE289D4W4GBBCVWI3CTRKC91","1",4,10,3,"5","<p style=""font-size:100px""><b>D</b></p><p style=""position: absolute; top: 30px; right: 30px; text-align:right; font-size:50px"""">N = 3</p>","D",0,NA,NA,0,"agree",10,13,18,18,17,"32","male","The instruct ructions are clear.","Neither Agreement nor Disagreement","Moderate Agreement","Strong Disagreement","Moderate Disagreement","Moderate Disagreement","Moderate Agreement","Slight Agreement","Moderate Disagreement","Moderate Agreement","Slight Agreement","Very Strong Agreement","Moderate Disagreement","Moderate Agreement","Neither Agreement nor Disagreement","Slight Agreement","Moderate Disagreement","Strong Disagreement","Moderate Disagreement"
"83","AY1NVR3M3GYCI:3PMBY0YE289D4W4GBBCVWI3CTRKC91","1",4,11,3,"5","<p style=""font-size:100px""><b>d</b></p><p style=""position: absolute; top: 30px; right: 30px; text-align:right; font-size:50px"""">N = 3</p>","d",0,73,862.660000100732,1,"agree",10,13,18,18,17,"32","male","The instruct ructions are clear.","Neither Agreement nor Disagreement","Moderate Agreement","Strong Disagreement","Moderate Disagreement","Moderate Disagreement","Moderate Agreement","Slight Agreement","Moderate Disagreement","Moderate Agreement","Slight Agreement","Very Strong Agreement","Moderate Disagreement","Moderate Agreement","Neither Agreement nor Disagreement","Slight Agreement","Moderate Disagreement","Strong Disagreement","Moderate Disagreement"
"84","AY1NVR3M3GYCI:3PMBY0YE289D4W4GBBCVWI3CTRKC91","1",4,12,3,"5","<p style=""font-size:100px""><b>G</b></p><p style=""position: absolute; top: 30px; right: 30px; text-align:right; font-size:50px"""">N = 3</p>","G",0,73,560.55000051856,1,"agree",10,13,18,18,17,"32","male","The instruct ructions are clear.","Neither Agreement nor Disagreement","Moderate Agreement","Strong Disagreement","Moderate Disagreement","Moderate Disagreement","Moderate Agreement","Slight Agreement","Moderate Disagreement","Moderate Agreement","Slight Agreement","Very Strong Agreement","Moderate Disagreement","Moderate Agreement","Neither Agreement nor Disagreement","Slight Agreement","Moderate Disagreement","Strong Disagreement","Moderate Disagreement"
"85","AY1NVR3M3GYCI:3PMBY0YE289D4W4GBBCVWI3CTRKC91","1",5,1,3,"50","<p style=""font-size:100px""><b>B</b></p><p style=""position: absolute; top: 30px; right: 30px; text-align:right; font-size:50px"""">N = 3</p>","B",0,73,816.314999014139,1,"agree",10,9,19,17,17,"32","male","The instruct ructions are clear.","Neither Agreement nor Disagreement","Moderate Agreement","Strong Disagreement","Moderate Disagreement","Moderate Disagreement","Moderate Agreement","Slight Agreement","Moderate Disagreement","Moderate Agreement","Slight Agreement","Very Strong Agreement","Moderate Disagreement","Moderate Agreement","Neither Agreement nor Disagreement","Slight Agreement","Moderate Disagreement","Strong Disagreement","Moderate Disagreement"
"86","AY1NVR3M3GYCI:3PMBY0YE289D4W4GBBCVWI3CTRKC91","1",5,2,3,"50","<p style=""font-size:100px""><b>G</b></p><p style=""position: absolute; top: 30px; right: 30px; text-align:right; font-size:50px"""">N = 3</p>","G",0,73,999.350000172853,1,"agree",10,9,19,17,17,"32","male","The instruct ructions are clear.","Neither Agreement nor Disagreement","Moderate Agreement","Strong Disagreement","Moderate Disagreement","Moderate Disagreement","Moderate Agreement","Slight Agreement","Moderate Disagreement","Moderate Agreement","Slight Agreement","Very Strong Agreement","Moderate Disagreement","Moderate Agreement","Neither Agreement nor Disagreement","Slight Agreement","Moderate Disagreement","Strong Disagreement","Moderate Disagreement"
"87","AY1NVR3M3GYCI:3PMBY0YE289D4W4GBBCVWI3CTRKC91","1",5,3,3,"50","<p style=""font-size:100px""><b>d</b></p><p style=""position: absolute; top: 30px; right: 30px; text-align:right; font-size:50px"""">N = 3</p>","d",0,73,742.14500002563,1,"agree",10,9,19,17,17,"32","male","The instruct ructions are clear.","Neither Agreement nor Disagreement","Moderate Agreement","Strong Disagreement","Moderate Disagreement","Moderate Disagreement","Moderate Agreement","Slight Agreement","Moderate Disagreement","Moderate Agreement","Slight Agreement","Very Strong Agreement","Moderate Disagreement","Moderate Agreement","Neither Agreement nor Disagreement","Slight Agreement","Moderate Disagreement","Strong Disagreement","Moderate Disagreement"
"88","AY1NVR3M3GYCI:3PMBY0YE289D4W4GBBCVWI3CTRKC91","1",5,4,3,"50","<p style=""font-size:100px""><b>g</b></p><p style=""position: absolute; top: 30px; right: 30px; text-align:right; font-size:50px"""">N = 3</p>","g",0,NA,NA,0,"agree",10,9,19,17,17,"32","male","The instruct ructions are clear.","Neither Agreement nor Disagreement","Moderate Agreement","Strong Disagreement","Moderate Disagreement","Moderate Disagreement","Moderate Agreement","Slight Agreement","Moderate Disagreement","Moderate Agreement","Slight Agreement","Very Strong Agreement","Moderate Disagreement","Moderate Agreement","Neither Agreement nor Disagreement","Slight Agreement","Moderate Disagreement","Strong Disagreement","Moderate Disagreement"
"89","AY1NVR3M3GYCI:3PMBY0YE289D4W4GBBCVWI3CTRKC91","1",5,5,3,"50","<p style=""font-size:100px""><b>G</b></p><p style=""position: absolute; top: 30px; right: 30px; text-align:right; font-size:50px"""">N = 3</p>","G",0,73,618.11999976635,1,"agree",10,9,19,17,17,"32","male","The instruct ructions are clear.","Neither Agreement nor Disagreement","Moderate Agreement","Strong Disagreement","Moderate Disagreement","Moderate Disagreement","Moderate Agreement","Slight Agreement","Moderate Disagreement","Moderate Agreement","Slight Agreement","Very Strong Agreement","Moderate Disagreement","Moderate Agreement","Neither Agreement nor Disagreement","Slight Agreement","Moderate Disagreement","Strong Disagreement","Moderate Disagreement"
"90","AY1NVR3M3GYCI:3PMBY0YE289D4W4GBBCVWI3CTRKC91","1",5,6,3,"50","<p style=""font-size:100px""><b>d</b></p><p style=""position: absolute; top: 30px; right: 30px; text-align:right; font-size:50px"""">N = 3</p>","d",0,73,576.455000787973,1,"agree",10,9,19,17,17,"32","male","The instruct ructions are clear.","Neither Agreement nor Disagreement","Moderate Agreement","Strong Disagreement","Moderate Disagreement","Moderate Disagreement","Moderate Agreement","Slight Agreement","Moderate Disagreement","Moderate Agreement","Slight Agreement","Very Strong Agreement","Moderate Disagreement","Moderate Agreement","Neither Agreement nor Disagreement","Slight Agreement","Moderate Disagreement","Strong Disagreement","Moderate Disagreement"
"91","AY1NVR3M3GYCI:3PMBY0YE289D4W4GBBCVWI3CTRKC91","1",5,7,3,"50","<p style=""font-size:100px""><b>T</b></p><p style=""position: absolute; top: 30px; right: 30px; text-align:right; font-size:50px"""">N = 3</p>","T",0,73,602.295000106096,1,"agree",10,9,19,17,17,"32","male","The instruct ructions are clear.","Neither Agreement nor Disagreement","Moderate Agreement","Strong Disagreement","Moderate Disagreement","Moderate Disagreement","Moderate Agreement","Slight Agreement","Moderate Disagreement","Moderate Agreement","Slight Agreement","Very Strong Agreement","Moderate Disagreement","Moderate Agreement","Neither Agreement nor Disagreement","Slight Agreement","Moderate Disagreement","Strong Disagreement","Moderate Disagreement"
"92","AY1NVR3M3GYCI:3PMBY0YE289D4W4GBBCVWI3CTRKC91","1",5,8,3,"50","<p style=""font-size:100px""><b>B</b></p><p style=""position: absolute; top: 30px; right: 30px; text-align:right; font-size:50px"""">N = 3</p>","B",0,NA,NA,0,"agree",10,9,19,17,17,"32","male","The instruct ructions are clear.","Neither Agreement nor Disagreement","Moderate Agreement","Strong Disagreement","Moderate Disagreement","Moderate Disagreement","Moderate Agreement","Slight Agreement","Moderate Disagreement","Moderate Agreement","Slight Agreement","Very Strong Agreement","Moderate Disagreement","Moderate Agreement","Neither Agreement nor Disagreement","Slight Agreement","Moderate Disagreement","Strong Disagreement","Moderate Disagreement"
"93","AY1NVR3M3GYCI:3PMBY0YE289D4W4GBBCVWI3CTRKC91","1",5,9,3,"50","<p style=""font-size:100px""><b>P</b></p><p style=""position: absolute; top: 30px; right: 30px; text-align:right; font-size:50px"""">N = 3</p>","P",0,73,789.065001532435,1,"agree",10,9,19,17,17,"32","male","The instruct ructions are clear.","Neither Agreement nor Disagreement","Moderate Agreement","Strong Disagreement","Moderate Disagreement","Moderate Disagreement","Moderate Agreement","Slight Agreement","Moderate Disagreement","Moderate Agreement","Slight Agreement","Very Strong Agreement","Moderate Disagreement","Moderate Agreement","Neither Agreement nor Disagreement","Slight Agreement","Moderate Disagreement","Strong Disagreement","Moderate Disagreement"
"94","AY1NVR3M3GYCI:3PMBY0YE289D4W4GBBCVWI3CTRKC91","1",5,10,3,"50","<p style=""font-size:100px""><b>T</b></p><p style=""position: absolute; top: 30px; right: 30px; text-align:right; font-size:50px"""">N = 3</p>","T",0,73,581.010000780225,1,"agree",10,9,19,17,17,"32","male","The instruct ructions are clear.","Neither Agreement nor Disagreement","Moderate Agreement","Strong Disagreement","Moderate Disagreement","Moderate Disagreement","Moderate Agreement","Slight Agreement","Moderate Disagreement","Moderate Agreement","Slight Agreement","Very Strong Agreement","Moderate Disagreement","Moderate Agreement","Neither Agreement nor Disagreement","Slight Agreement","Moderate Disagreement","Strong Disagreement","Moderate Disagreement"
"95","AY1NVR3M3GYCI:3PMBY0YE289D4W4GBBCVWI3CTRKC91","1",5,11,3,"50","<p style=""font-size:100px""><b>B</b></p><p style=""position: absolute; top: 30px; right: 30px; text-align:right; font-size:50px"""">N = 3</p>","B",0,73,531.430000439286,1,"agree",10,9,19,17,17,"32","male","The instruct ructions are clear.","Neither Agreement nor Disagreement","Moderate Agreement","Strong Disagreement","Moderate Disagreement","Moderate Disagreement","Moderate Agreement","Slight Agreement","Moderate Disagreement","Moderate Agreement","Slight Agreement","Very Strong Agreement","Moderate Disagreement","Moderate Agreement","Neither Agreement nor Disagreement","Slight Agreement","Moderate Disagreement","Strong Disagreement","Moderate Disagreement"
"96","AY1NVR3M3GYCI:3PMBY0YE289D4W4GBBCVWI3CTRKC91","1",5,12,3,"50","<p style=""font-size:100px""><b>d</b></p><p style=""position: absolute; top: 30px; right: 30px; text-align:right; font-size:50px"""">N = 3</p>","d",0,73,620.145000517368,1,"agree",10,9,19,17,17,"32","male","The instruct ructions are clear.","Neither Agreement nor Disagreement","Moderate Agreement","Strong Disagreement","Moderate Disagreement","Moderate Disagreement","Moderate Agreement","Slight Agreement","Moderate Disagreement","Moderate Agreement","Slight Agreement","Very Strong Agreement","Moderate Disagreement","Moderate Agreement","Neither Agreement nor Disagreement","Slight Agreement","Moderate Disagreement","Strong Disagreement","Moderate Disagreement"
"97","AY1NVR3M3GYCI:3PMBY0YE289D4W4GBBCVWI3CTRKC91","1",6,1,3,"5","<p style=""font-size:100px""><b>p</b></p><p style=""position: absolute; top: 30px; right: 30px; text-align:right; font-size:50px"""">N = 3</p>","p",0,73,659.360000863671,1,"agree",8,14,15,16,17,"32","male","The instruct ructions are clear.","Neither Agreement nor Disagreement","Moderate Agreement","Strong Disagreement","Moderate Disagreement","Moderate Disagreement","Moderate Agreement","Slight Agreement","Moderate Disagreement","Moderate Agreement","Slight Agreement","Very Strong Agreement","Moderate Disagreement","Moderate Agreement","Neither Agreement nor Disagreement","Slight Agreement","Moderate Disagreement","Strong Disagreement","Moderate Disagreement"
"98","AY1NVR3M3GYCI:3PMBY0YE289D4W4GBBCVWI3CTRKC91","1",6,2,3,"5","<p style=""font-size:100px""><b>G</b></p><p style=""position: absolute; top: 30px; right: 30px; text-align:right; font-size:50px"""">N = 3</p>","G",0,73,584.245000034571,1,"agree",8,14,15,16,17,"32","male","The instruct ructions are clear.","Neither Agreement nor Disagreement","Moderate Agreement","Strong Disagreement","Moderate Disagreement","Moderate Disagreement","Moderate Agreement","Slight Agreement","Moderate Disagreement","Moderate Agreement","Slight Agreement","Very Strong Agreement","Moderate Disagreement","Moderate Agreement","Neither Agreement nor Disagreement","Slight Agreement","Moderate Disagreement","Strong Disagreement","Moderate Disagreement"
"99","AY1NVR3M3GYCI:3PMBY0YE289D4W4GBBCVWI3CTRKC91","1",6,3,3,"5","<p style=""font-size:100px""><b>B</b></p><p style=""position: absolute; top: 30px; right: 30px; text-align:right; font-size:50px"""">N = 3</p>","B",0,73,627.794999629259,1,"agree",8,14,15,16,17,"32","male","The instruct ructions are clear.","Neither Agreement nor Disagreement","Moderate Agreement","Strong Disagreement","Moderate Disagreement","Moderate Disagreement","Moderate Agreement","Slight Agreement","Moderate Disagreement","Moderate Agreement","Slight Agreement","Very Strong Agreement","Moderate Disagreement","Moderate Agreement","Neither Agreement nor Disagreement","Slight Agreement","Moderate Disagreement","Strong Disagreement","Moderate Disagreement"
"100","AY1NVR3M3GYCI:3PMBY0YE289D4W4GBBCVWI3CTRKC91","1",6,4,3,"5","<p style=""font-size:100px""><b>T</b></p><p style=""position: absolute; top: 30px; right: 30px; text-align:right; font-size:50px"""">N = 3</p>","T",0,73,545.079998672009,1,"agree",8,14,15,16,17,"32","male","The instruct ructions are clear.","Neither Agreement nor Disagreement","Moderate Agreement","Strong Disagreement","Moderate Disagreement","Moderate Disagreement","Moderate Agreement","Slight Agreement","Moderate Disagreement","Moderate Agreement","Slight Agreement","Very Strong Agreement","Moderate Disagreement","Moderate Agreement","Neither Agreement nor Disagreement","Slight Agreement","Moderate Disagreement","Strong Disagreement","Moderate Disagreement"
"101","AY1NVR3M3GYCI:3PMBY0YE289D4W4GBBCVWI3CTRKC91","1",6,5,3,"5","<p style=""font-size:100px""><b>d</b></p><p style=""position: absolute; top: 30px; right: 30px; text-align:right; font-size:50px"""">N = 3</p>","d",0,73,725.390000268817,1,"agree",8,14,15,16,17,"32","male","The instruct ructions are clear.","Neither Agreement nor Disagreement","Moderate Agreement","Strong Disagreement","Moderate Disagreement","Moderate Disagreement","Moderate Agreement","Slight Agreement","Moderate Disagreement","Moderate Agreement","Slight Agreement","Very Strong Agreement","Moderate Disagreement","Moderate Agreement","Neither Agreement nor Disagreement","Slight Agreement","Moderate Disagreement","Strong Disagreement","Moderate Disagreement"
"102","AY1NVR3M3GYCI:3PMBY0YE289D4W4GBBCVWI3CTRKC91","1",6,6,3,"5","<p style=""font-size:100px""><b>B</b></p><p style=""position: absolute; top: 30px; right: 30px; text-align:right; font-size:50px"""">N = 3</p>","B",0,73,736.859999597073,1,"agree",8,14,15,16,17,"32","male","The instruct ructions are clear.","Neither Agreement nor Disagreement","Moderate Agreement","Strong Disagreement","Moderate Disagreement","Moderate Disagreement","Moderate Agreement","Slight Agreement","Moderate Disagreement","Moderate Agreement","Slight Agreement","Very Strong Agreement","Moderate Disagreement","Moderate Agreement","Neither Agreement nor Disagreement","Slight Agreement","Moderate Disagreement","Strong Disagreement","Moderate Disagreement"
"103","AY1NVR3M3GYCI:3PMBY0YE289D4W4GBBCVWI3CTRKC91","1",6,7,3,"5","<p style=""font-size:100px""><b>V</b></p><p style=""position: absolute; top: 30px; right: 30px; text-align:right; font-size:50px"""">N = 3</p>","V",0,73,625.310000032187,1,"agree",8,14,15,16,17,"32","male","The instruct ructions are clear.","Neither Agreement nor Disagreement","Moderate Agreement","Strong Disagreement","Moderate Disagreement","Moderate Disagreement","Moderate Agreement","Slight Agreement","Moderate Disagreement","Moderate Agreement","Slight Agreement","Very Strong Agreement","Moderate Disagreement","Moderate Agreement","Neither Agreement nor Disagreement","Slight Agreement","Moderate Disagreement","Strong Disagreement","Moderate Disagreement"
"104","AY1NVR3M3GYCI:3PMBY0YE289D4W4GBBCVWI3CTRKC91","1",6,8,3,"5","<p style=""font-size:100px""><b>d</b></p><p style=""position: absolute; top: 30px; right: 30px; text-align:right; font-size:50px"""">N = 3</p>","d",0,73,625.964999198914,1,"agree",8,14,15,16,17,"32","male","The instruct ructions are clear.","Neither Agreement nor Disagreement","Moderate Agreement","Strong Disagreement","Moderate Disagreement","Moderate Disagreement","Moderate Agreement","Slight Agreement","Moderate Disagreement","Moderate Agreement","Slight Agreement","Very Strong Agreement","Moderate Disagreement","Moderate Agreement","Neither Agreement nor Disagreement","Slight Agreement","Moderate Disagreement","Strong Disagreement","Moderate Disagreement"
"105","AY1NVR3M3GYCI:3PMBY0YE289D4W4GBBCVWI3CTRKC91","1",6,9,3,"5","<p style=""font-size:100px""><b>D</b></p><p style=""position: absolute; top: 30px; right: 30px; text-align:right; font-size:50px"""">N = 3</p>","D",0,73,663.625000044703,1,"agree",8,14,15,16,17,"32","male","The instruct ructions are clear.","Neither Agreement nor Disagreement","Moderate Agreement","Strong Disagreement","Moderate Disagreement","Moderate Disagreement","Moderate Agreement","Slight Agreement","Moderate Disagreement","Moderate Agreement","Slight Agreement","Very Strong Agreement","Moderate Disagreement","Moderate Agreement","Neither Agreement nor Disagreement","Slight Agreement","Moderate Disagreement","Strong Disagreement","Moderate Disagreement"
"106","AY1NVR3M3GYCI:3PMBY0YE289D4W4GBBCVWI3CTRKC91","1",6,10,3,"5","<p style=""font-size:100px""><b>V</b></p><p style=""position: absolute; top: 30px; right: 30px; text-align:right; font-size:50px"""">N = 3</p>","V",0,73,567.840000614524,1,"agree",8,14,15,16,17,"32","male","The instruct ructions are clear.","Neither Agreement nor Disagreement","Moderate Agreement","Strong Disagreement","Moderate Disagreement","Moderate Disagreement","Moderate Agreement","Slight Agreement","Moderate Disagreement","Moderate Agreement","Slight Agreement","Very Strong Agreement","Moderate Disagreement","Moderate Agreement","Neither Agreement nor Disagreement","Slight Agreement","Moderate Disagreement","Strong Disagreement","Moderate Disagreement"
"107","AY1NVR3M3GYCI:3PMBY0YE289D4W4GBBCVWI3CTRKC91","1",6,11,3,"5","<p style=""font-size:100px""><b>d</b></p><p style=""position: absolute; top: 30px; right: 30px; text-align:right; font-size:50px"""">N = 3</p>","d",0,NA,NA,0,"agree",8,14,15,16,17,"32","male","The instruct ructions are clear.","Neither Agreement nor Disagreement","Moderate Agreement","Strong Disagreement","Moderate Disagreement","Moderate Disagreement","Moderate Agreement","Slight Agreement","Moderate Disagreement","Moderate Agreement","Slight Agreement","Very Strong Agreement","Moderate Disagreement","Moderate Agreement","Neither Agreement nor Disagreement","Slight Agreement","Moderate Disagreement","Strong Disagreement","Moderate Disagreement"
"108","AY1NVR3M3GYCI:3PMBY0YE289D4W4GBBCVWI3CTRKC91","1",6,12,3,"5","<p style=""font-size:100px""><b>B</b></p><p style=""position: absolute; top: 30px; right: 30px; text-align:right; font-size:50px"""">N = 3</p>","B",0,NA,NA,0,"agree",8,14,15,16,17,"32","male","The instruct ructions are clear.","Neither Agreement nor Disagreement","Moderate Agreement","Strong Disagreement","Moderate Disagreement","Moderate Disagreement","Moderate Agreement","Slight Agreement","Moderate Disagreement","Moderate Agreement","Slight Agreement","Very Strong Agreement","Moderate Disagreement","Moderate Agreement","Neither Agreement nor Disagreement","Slight Agreement","Moderate Disagreement","Strong Disagreement","Moderate Disagreement"
"109","AY1NVR3M3GYCI:3PMBY0YE289D4W4GBBCVWI3CTRKC91","2",7,1,3,"50","<p style=""font-size:100px""><b>d</b></p><p style=""position: absolute; top: 30px; right: 30px; text-align:right; font-size:50px"""">N = 3</p>","d",0,NA,NA,0,"agree",11,7,18,18,17,"32","male","The instruct ructions are clear.","Neither Agreement nor Disagreement","Moderate Agreement","Strong Disagreement","Moderate Disagreement","Moderate Disagreement","Moderate Agreement","Slight Agreement","Moderate Disagreement","Moderate Agreement","Slight Agreement","Very Strong Agreement","Moderate Disagreement","Moderate Agreement","Neither Agreement nor Disagreement","Slight Agreement","Moderate Disagreement","Strong Disagreement","Moderate Disagreement"
"110","AY1NVR3M3GYCI:3PMBY0YE289D4W4GBBCVWI3CTRKC91","2",7,2,3,"50","<p style=""font-size:100px""><b>T</b></p><p style=""position: absolute; top: 30px; right: 30px; text-align:right; font-size:50px"""">N = 3</p>","T",0,73,751.704998314381,1,"agree",11,7,18,18,17,"32","male","The instruct ructions are clear.","Neither Agreement nor Disagreement","Moderate Agreement","Strong Disagreement","Moderate Disagreement","Moderate Disagreement","Moderate Agreement","Slight Agreement","Moderate Disagreement","Moderate Agreement","Slight Agreement","Very Strong Agreement","Moderate Disagreement","Moderate Agreement","Neither Agreement nor Disagreement","Slight Agreement","Moderate Disagreement","Strong Disagreement","Moderate Disagreement"
"111","AY1NVR3M3GYCI:3PMBY0YE289D4W4GBBCVWI3CTRKC91","2",7,3,3,"50","<p style=""font-size:100px""><b>g</b></p><p style=""position: absolute; top: 30px; right: 30px; text-align:right; font-size:50px"""">N = 3</p>","g",0,73,724.084999412298,1,"agree",11,7,18,18,17,"32","male","The instruct ructions are clear.","Neither Agreement nor Disagreement","Moderate Agreement","Strong Disagreement","Moderate Disagreement","Moderate Disagreement","Moderate Agreement","Slight Agreement","Moderate Disagreement","Moderate Agreement","Slight Agreement","Very Strong Agreement","Moderate Disagreement","Moderate Agreement","Neither Agreement nor Disagreement","Slight Agreement","Moderate Disagreement","Strong Disagreement","Moderate Disagreement"
"112","AY1NVR3M3GYCI:3PMBY0YE289D4W4GBBCVWI3CTRKC91","2",7,4,3,"50","<p style=""font-size:100px""><b>v</b></p><p style=""position: absolute; top: 30px; right: 30px; text-align:right; font-size:50px"""">N = 3</p>","v",0,73,800.654999911785,1,"agree",11,7,18,18,17,"32","male","The instruct ructions are clear.","Neither Agreement nor Disagreement","Moderate Agreement","Strong Disagreement","Moderate Disagreement","Moderate Disagreement","Moderate Agreement","Slight Agreement","Moderate Disagreement","Moderate Agreement","Slight Agreement","Very Strong Agreement","Moderate Disagreement","Moderate Agreement","Neither Agreement nor Disagreement","Slight Agreement","Moderate Disagreement","Strong Disagreement","Moderate Disagreement"
"113","AY1NVR3M3GYCI:3PMBY0YE289D4W4GBBCVWI3CTRKC91","2",7,5,3,"50","<p style=""font-size:100px""><b>T</b></p><p style=""position: absolute; top: 30px; right: 30px; text-align:right; font-size:50px"""">N = 3</p>","T",0,69,843.674998730421,0,"agree",11,7,18,18,17,"32","male","The instruct ructions are clear.","Neither Agreement nor Disagreement","Moderate Agreement","Strong Disagreement","Moderate Disagreement","Moderate Disagreement","Moderate Agreement","Slight Agreement","Moderate Disagreement","Moderate Agreement","Slight Agreement","Very Strong Agreement","Moderate Disagreement","Moderate Agreement","Neither Agreement nor Disagreement","Slight Agreement","Moderate Disagreement","Strong Disagreement","Moderate Disagreement"
"114","AY1NVR3M3GYCI:3PMBY0YE289D4W4GBBCVWI3CTRKC91","2",7,6,3,"50","<p style=""font-size:100px""><b>g</b></p><p style=""position: absolute; top: 30px; right: 30px; text-align:right; font-size:50px"""">N = 3</p>","g",0,69,696.88499905169,0,"agree",11,7,18,18,17,"32","male","The instruct ructions are clear.","Neither Agreement nor Disagreement","Moderate Agreement","Strong Disagreement","Moderate Disagreement","Moderate Disagreement","Moderate Agreement","Slight Agreement","Moderate Disagreement","Moderate Agreement","Slight Agreement","Very Strong Agreement","Moderate Disagreement","Moderate Agreement","Neither Agreement nor Disagreement","Slight Agreement","Moderate Disagreement","Strong Disagreement","Moderate Disagreement"
"115","AY1NVR3M3GYCI:3PMBY0YE289D4W4GBBCVWI3CTRKC91","2",7,7,3,"50","<p style=""font-size:100px""><b>v</b></p><p style=""position: absolute; top: 30px; right: 30px; text-align:right; font-size:50px"""">N = 3</p>","v",0,NA,NA,0,"agree",11,7,18,18,17,"32","male","The instruct ructions are clear.","Neither Agreement nor Disagreement","Moderate Agreement","Strong Disagreement","Moderate Disagreement","Moderate Disagreement","Moderate Agreement","Slight Agreement","Moderate Disagreement","Moderate Agreement","Slight Agreement","Very Strong Agreement","Moderate Disagreement","Moderate Agreement","Neither Agreement nor Disagreement","Slight Agreement","Moderate Disagreement","Strong Disagreement","Moderate Disagreement"
"116","AY1NVR3M3GYCI:3PMBY0YE289D4W4GBBCVWI3CTRKC91","2",7,8,3,"50","<p style=""font-size:100px""><b>g</b></p><p style=""position: absolute; top: 30px; right: 30px; text-align:right; font-size:50px"""">N = 3</p>","g",0,NA,NA,0,"agree",11,7,18,18,17,"32","male","The instruct ructions are clear.","Neither Agreement nor Disagreement","Moderate Agreement","Strong Disagreement","Moderate Disagreement","Moderate Disagreement","Moderate Agreement","Slight Agreement","Moderate Disagreement","Moderate Agreement","Slight Agreement","Very Strong Agreement","Moderate Disagreement","Moderate Agreement","Neither Agreement nor Disagreement","Slight Agreement","Moderate Disagreement","Strong Disagreement","Moderate Disagreement"
"117","AY1NVR3M3GYCI:3PMBY0YE289D4W4GBBCVWI3CTRKC91","2",7,9,3,"50","<p style=""font-size:100px""><b>P</b></p><p style=""position: absolute; top: 30px; right: 30px; text-align:right; font-size:50px"""">N = 3</p>","P",0,73,856.159999966621,1,"agree",11,7,18,18,17,"32","male","The instruct ructions are clear.","Neither Agreement nor Disagreement","Moderate Agreement","Strong Disagreement","Moderate Disagreement","Moderate Disagreement","Moderate Agreement","Slight Agreement","Moderate Disagreement","Moderate Agreement","Slight Agreement","Very Strong Agreement","Moderate Disagreement","Moderate Agreement","Neither Agreement nor Disagreement","Slight Agreement","Moderate Disagreement","Strong Disagreement","Moderate Disagreement"
"118","AY1NVR3M3GYCI:3PMBY0YE289D4W4GBBCVWI3CTRKC91","2",7,10,3,"50","<p style=""font-size:100px""><b>v</b></p><p style=""position: absolute; top: 30px; right: 30px; text-align:right; font-size:50px"""">N = 3</p>","v",0,69,999.420000240207,0,"agree",11,7,18,18,17,"32","male","The instruct ructions are clear.","Neither Agreement nor Disagreement","Moderate Agreement","Strong Disagreement","Moderate Disagreement","Moderate Disagreement","Moderate Agreement","Slight Agreement","Moderate Disagreement","Moderate Agreement","Slight Agreement","Very Strong Agreement","Moderate Disagreement","Moderate Agreement","Neither Agreement nor Disagreement","Slight Agreement","Moderate Disagreement","Strong Disagreement","Moderate Disagreement"
"119","AY1NVR3M3GYCI:3PMBY0YE289D4W4GBBCVWI3CTRKC91","2",7,11,3,"50","<p style=""font-size:100px""><b>T</b></p><p style=""position: absolute; top: 30px; right: 30px; text-align:right; font-size:50px"""">N = 3</p>","T",0,73,838.145000860095,1,"agree",11,7,18,18,17,"32","male","The instruct ructions are clear.","Neither Agreement nor Disagreement","Moderate Agreement","Strong Disagreement","Moderate Disagreement","Moderate Disagreement","Moderate Agreement","Slight Agreement","Moderate Disagreement","Moderate Agreement","Slight Agreement","Very Strong Agreement","Moderate Disagreement","Moderate Agreement","Neither Agreement nor Disagreement","Slight Agreement","Moderate Disagreement","Strong Disagreement","Moderate Disagreement"
"120","AY1NVR3M3GYCI:3PMBY0YE289D4W4GBBCVWI3CTRKC91","2",7,12,3,"50","<p style=""font-size:100px""><b>V</b></p><p style=""position: absolute; top: 30px; right: 30px; text-align:right; font-size:50px"""">N = 3</p>","V",0,73,741.195000708103,1,"agree",11,7,18,18,17,"32","male","The instruct ructions are clear.","Neither Agreement nor Disagreement","Moderate Agreement","Strong Disagreement","Moderate Disagreement","Moderate Disagreement","Moderate Agreement","Slight Agreement","Moderate Disagreement","Moderate Agreement","Slight Agreement","Very Strong Agreement","Moderate Disagreement","Moderate Agreement","Neither Agreement nor Disagreement","Slight Agreement","Moderate Disagreement","Strong Disagreement","Moderate Disagreement"
"121","AY1NVR3M3GYCI:3PMBY0YE289D4W4GBBCVWI3CTRKC91","2",8,1,2,"50","<p style=""font-size:100px""><b>t</b></p><p style=""position: absolute; top: 30px; right: 30px; text-align:right; font-size:50px"""">N = 2</p>","t",0,73,959.71000008285,1,"agree",4,17,18,17,18,"32","male","The instruct ructions are clear.","Neither Agreement nor Disagreement","Moderate Agreement","Strong Disagreement","Moderate Disagreement","Moderate Disagreement","Moderate Agreement","Slight Agreement","Moderate Disagreement","Moderate Agreement","Slight Agreement","Very Strong Agreement","Moderate Disagreement","Moderate Agreement","Neither Agreement nor Disagreement","Slight Agreement","Moderate Disagreement","Strong Disagreement","Moderate Disagreement"
"122","AY1NVR3M3GYCI:3PMBY0YE289D4W4GBBCVWI3CTRKC91","2",8,2,2,"50","<p style=""font-size:100px""><b>g</b></p><p style=""position: absolute; top: 30px; right: 30px; text-align:right; font-size:50px"""">N = 2</p>","g",0,73,625.225000083447,1,"agree",4,17,18,17,18,"32","male","The instruct ructions are clear.","Neither Agreement nor Disagreement","Moderate Agreement","Strong Disagreement","Moderate Disagreement","Moderate Disagreement","Moderate Agreement","Slight Agreement","Moderate Disagreement","Moderate Agreement","Slight Agreement","Very Strong Agreement","Moderate Disagreement","Moderate Agreement","Neither Agreement nor Disagreement","Slight Agreement","Moderate Disagreement","Strong Disagreement","Moderate Disagreement"
"123","AY1NVR3M3GYCI:3PMBY0YE289D4W4GBBCVWI3CTRKC91","2",8,3,2,"50","<p style=""font-size:100px""><b>G</b></p><p style=""position: absolute; top: 30px; right: 30px; text-align:right; font-size:50px"""">N = 2</p>","G",0,NA,NA,0,"agree",4,17,18,17,18,"32","male","The instruct ructions are clear.","Neither Agreement nor Disagreement","Moderate Agreement","Strong Disagreement","Moderate Disagreement","Moderate Disagreement","Moderate Agreement","Slight Agreement","Moderate Disagreement","Moderate Agreement","Slight Agreement","Very Strong Agreement","Moderate Disagreement","Moderate Agreement","Neither Agreement nor Disagreement","Slight Agreement","Moderate Disagreement","Strong Disagreement","Moderate Disagreement"
"124","AY1NVR3M3GYCI:3PMBY0YE289D4W4GBBCVWI3CTRKC91","2",8,4,2,"50","<p style=""font-size:100px""><b>B</b></p><p style=""position: absolute; top: 30px; right: 30px; text-align:right; font-size:50px"""">N = 2</p>","B",0,73,912.475001066923,1,"agree",4,17,18,17,18,"32","male","The instruct ructions are clear.","Neither Agreement nor Disagreement","Moderate Agreement","Strong Disagreement","Moderate Disagreement","Moderate Disagreement","Moderate Agreement","Slight Agreement","Moderate Disagreement","Moderate Agreement","Slight Agreement","Very Strong Agreement","Moderate Disagreement","Moderate Agreement","Neither Agreement nor Disagreement","Slight Agreement","Moderate Disagreement","Strong Disagreement","Moderate Disagreement"
"125","AY1NVR3M3GYCI:3PMBY0YE289D4W4GBBCVWI3CTRKC91","2",8,5,2,"50","<p style=""font-size:100px""><b>D</b></p><p style=""position: absolute; top: 30px; right: 30px; text-align:right; font-size:50px"""">N = 2</p>","D",0,73,894.700000062585,1,"agree",4,17,18,17,18,"32","male","The instruct ructions are clear.","Neither Agreement nor Disagreement","Moderate Agreement","Strong Disagreement","Moderate Disagreement","Moderate Disagreement","Moderate Agreement","Slight Agreement","Moderate Disagreement","Moderate Agreement","Slight Agreement","Very Strong Agreement","Moderate Disagreement","Moderate Agreement","Neither Agreement nor Disagreement","Slight Agreement","Moderate Disagreement","Strong Disagreement","Moderate Disagreement"
"126","AY1NVR3M3GYCI:3PMBY0YE289D4W4GBBCVWI3CTRKC91","2",8,6,2,"50","<p style=""font-size:100px""><b>B</b></p><p style=""position: absolute; top: 30px; right: 30px; text-align:right; font-size:50px"""">N = 2</p>","B",0,73,869.189999997616,1,"agree",4,17,18,17,18,"32","male","The instruct ructions are clear.","Neither Agreement nor Disagreement","Moderate Agreement","Strong Disagreement","Moderate Disagreement","Moderate Disagreement","Moderate Agreement","Slight Agreement","Moderate Disagreement","Moderate Agreement","Slight Agreement","Very Strong Agreement","Moderate Disagreement","Moderate Agreement","Neither Agreement nor Disagreement","Slight Agreement","Moderate Disagreement","Strong Disagreement","Moderate Disagreement"
"127","AY1NVR3M3GYCI:3PMBY0YE289D4W4GBBCVWI3CTRKC91","2",8,7,2,"50","<p style=""font-size:100px""><b>D</b></p><p style=""position: absolute; top: 30px; right: 30px; text-align:right; font-size:50px"""">N = 2</p>","D",0,NA,NA,0,"agree",4,17,18,17,18,"32","male","The instruct ructions are clear.","Neither Agreement nor Disagreement","Moderate Agreement","Strong Disagreement","Moderate Disagreement","Moderate Disagreement","Moderate Agreement","Slight Agreement","Moderate Disagreement","Moderate Agreement","Slight Agreement","Very Strong Agreement","Moderate Disagreement","Moderate Agreement","Neither Agreement nor Disagreement","Slight Agreement","Moderate Disagreement","Strong Disagreement","Moderate Disagreement"
"128","AY1NVR3M3GYCI:3PMBY0YE289D4W4GBBCVWI3CTRKC91","2",8,8,2,"50","<p style=""font-size:100px""><b>B</b></p><p style=""position: absolute; top: 30px; right: 30px; text-align:right; font-size:50px"""">N = 2</p>","B",0,NA,NA,0,"agree",4,17,18,17,18,"32","male","The instruct ructions are clear.","Neither Agreement nor Disagreement","Moderate Agreement","Strong Disagreement","Moderate Disagreement","Moderate Disagreement","Moderate Agreement","Slight Agreement","Moderate Disagreement","Moderate Agreement","Slight Agreement","Very Strong Agreement","Moderate Disagreement","Moderate Agreement","Neither Agreement nor Disagreement","Slight Agreement","Moderate Disagreement","Strong Disagreement","Moderate Disagreement"
"129","AY1NVR3M3GYCI:3PMBY0YE289D4W4GBBCVWI3CTRKC91","2",8,9,2,"50","<p style=""font-size:100px""><b>D</b></p><p style=""position: absolute; top: 30px; right: 30px; text-align:right; font-size:50px"""">N = 2</p>","D",0,73,999.824998900294,1,"agree",4,17,18,17,18,"32","male","The instruct ructions are clear.","Neither Agreement nor Disagreement","Moderate Agreement","Strong Disagreement","Moderate Disagreement","Moderate Disagreement","Moderate Agreement","Slight Agreement","Moderate Disagreement","Moderate Agreement","Slight Agreement","Very Strong Agreement","Moderate Disagreement","Moderate Agreement","Neither Agreement nor Disagreement","Slight Agreement","Moderate Disagreement","Strong Disagreement","Moderate Disagreement"
"130","AY1NVR3M3GYCI:3PMBY0YE289D4W4GBBCVWI3CTRKC91","2",8,10,2,"50","<p style=""font-size:100px""><b>G</b></p><p style=""position: absolute; top: 30px; right: 30px; text-align:right; font-size:50px"""">N = 2</p>","G",0,69,826.9800003618,0,"agree",4,17,18,17,18,"32","male","The instruct ructions are clear.","Neither Agreement nor Disagreement","Moderate Agreement","Strong Disagreement","Moderate Disagreement","Moderate Disagreement","Moderate Agreement","Slight Agreement","Moderate Disagreement","Moderate Agreement","Slight Agreement","Very Strong Agreement","Moderate Disagreement","Moderate Agreement","Neither Agreement nor Disagreement","Slight Agreement","Moderate Disagreement","Strong Disagreement","Moderate Disagreement"
"131","AY1NVR3M3GYCI:3PMBY0YE289D4W4GBBCVWI3CTRKC91","2",8,11,2,"50","<p style=""font-size:100px""><b>t</b></p><p style=""position: absolute; top: 30px; right: 30px; text-align:right; font-size:50px"""">N = 2</p>","t",0,73,710.574999451637,1,"agree",4,17,18,17,18,"32","male","The instruct ructions are clear.","Neither Agreement nor Disagreement","Moderate Agreement","Strong Disagreement","Moderate Disagreement","Moderate Disagreement","Moderate Agreement","Slight Agreement","Moderate Disagreement","Moderate Agreement","Slight Agreement","Very Strong Agreement","Moderate Disagreement","Moderate Agreement","Neither Agreement nor Disagreement","Slight Agreement","Moderate Disagreement","Strong Disagreement","Moderate Disagreement"
"132","AY1NVR3M3GYCI:3PMBY0YE289D4W4GBBCVWI3CTRKC91","2",8,12,2,"50","<p style=""font-size:100px""><b>p</b></p><p style=""position: absolute; top: 30px; right: 30px; text-align:right; font-size:50px"""">N = 2</p>","p",0,73,952.100001275539,1,"agree",4,17,18,17,18,"32","male","The instruct ructions are clear.","Neither Agreement nor Disagreement","Moderate Agreement","Strong Disagreement","Moderate Disagreement","Moderate Disagreement","Moderate Agreement","Slight Agreement","Moderate Disagreement","Moderate Agreement","Slight Agreement","Very Strong Agreement","Moderate Disagreement","Moderate Agreement","Neither Agreement nor Disagreement","Slight Agreement","Moderate Disagreement","Strong Disagreement","Moderate Disagreement"
"133","AY1NVR3M3GYCI:3PMBY0YE289D4W4GBBCVWI3CTRKC91","2",9,1,1,"50","<p style=""font-size:100px""><b>T</b></p><p style=""position: absolute; top: 30px; right: 30px; text-align:right; font-size:50px"""">N = 1</p>","T",0,73,930.87499961257,1,"agree",18,2,18,17,18,"32","male","The instruct ructions are clear.","Neither Agreement nor Disagreement","Moderate Agreement","Strong Disagreement","Moderate Disagreement","Moderate Disagreement","Moderate Agreement","Slight Agreement","Moderate Disagreement","Moderate Agreement","Slight Agreement","Very Strong Agreement","Moderate Disagreement","Moderate Agreement","Neither Agreement nor Disagreement","Slight Agreement","Moderate Disagreement","Strong Disagreement","Moderate Disagreement"
"134","AY1NVR3M3GYCI:3PMBY0YE289D4W4GBBCVWI3CTRKC91","2",9,2,1,"50","<p style=""font-size:100px""><b>T</b></p><p style=""position: absolute; top: 30px; right: 30px; text-align:right; font-size:50px"""">N = 1</p>","T",0,69,816.599998623133,0,"agree",18,2,18,17,18,"32","male","The instruct ructions are clear.","Neither Agreement nor Disagreement","Moderate Agreement","Strong Disagreement","Moderate Disagreement","Moderate Disagreement","Moderate Agreement","Slight Agreement","Moderate Disagreement","Moderate Agreement","Slight Agreement","Very Strong Agreement","Moderate Disagreement","Moderate Agreement","Neither Agreement nor Disagreement","Slight Agreement","Moderate Disagreement","Strong Disagreement","Moderate Disagreement"
"135","AY1NVR3M3GYCI:3PMBY0YE289D4W4GBBCVWI3CTRKC91","2",9,3,1,"50","<p style=""font-size:100px""><b>T</b></p><p style=""position: absolute; top: 30px; right: 30px; text-align:right; font-size:50px"""">N = 1</p>","T",0,69,739.719999954104,0,"agree",18,2,18,17,18,"32","male","The instruct ructions are clear.","Neither Agreement nor Disagreement","Moderate Agreement","Strong Disagreement","Moderate Disagreement","Moderate Disagreement","Moderate Agreement","Slight Agreement","Moderate Disagreement","Moderate Agreement","Slight Agreement","Very Strong Agreement","Moderate Disagreement","Moderate Agreement","Neither Agreement nor Disagreement","Slight Agreement","Moderate Disagreement","Strong Disagreement","Moderate Disagreement"
