"","subject","run","block","trial","N","reward","stimulus","cue","isTarget","key_press","rt","acc","debrief","performance","frustration","demand","temporal","effort","age","gender","comments","nfc1","nfc2","nfc3","nfc4","nfc5","nfc6","nfc7","nfc8","nfc9","nfc10","nfc11","nfc12","nfc13","nfc14","nfc15","nfc16","nfc17","nfc18"
"1","AL1U6BGXX0WD5:3W92K5RLWVNQ2I84Z2UJAUMZSWE5VN","practice",1,1,1,"NA","<p style=""font-size:100px""><b>g</b></p><p style=""position: absolute; top: 30px; right: 30px; text-align:right; font-size:50px"""">N = 1</p>","g",0,69,3436.70000000298,0,"agree",16,15,13,14,16,"25","Male","None","Slight Agreement","Slight Disagreement","Slight Agreement","Moderate Agreement","Slight Disagreement","Slight Agreement","Slight Agreement","Moderate Disagreement","Moderate Agreement","Moderate Disagreement","Moderate Agreement","Neither Agreement nor Disagreement","Slight Agreement","Slight Disagreement","Strong Agreement","Moderate Agreement","Moderate Agreement","Slight Agreement"
"2","AL1U6BGXX0WD5:3W92K5RLWVNQ2I84Z2UJAUMZSWE5VN","practice",1,2,1,"NA","<p style=""font-size:100px""><b>b</b></p><p style=""position: absolute; top: 30px; right: 30px; text-align:right; font-size:50px"""">N = 1</p>","b",0,73,982.29999999702,1,"agree",16,15,13,14,16,"25","Male","None","Slight Agreement","Slight Disagreement","Slight Agreement","Moderate Agreement","Slight Disagreement","Slight Agreement","Slight Agreement","Moderate Disagreement","Moderate Agreement","Moderate Disagreement","Moderate Agreement","Neither Agreement nor Disagreement","Slight Agreement","Slight Disagreement","Strong Agreement","Moderate Agreement","Moderate Agreement","Slight Agreement"
"3","AL1U6BGXX0WD5:3W92K5RLWVNQ2I84Z2UJAUMZSWE5VN","practice",1,3,1,"NA","<p style=""font-size:100px""><b>T</b></p><p style=""position: absolute; top: 30px; right: 30px; text-align:right; font-size:50px"""">N = 1</p>","T",0,73,571.70000000298,1,"agree",16,15,13,14,16,"25","Male","None","Slight Agreement","Slight Disagreement","Slight Agreement","Moderate Agreement","Slight Disagreement","Slight Agreement","Slight Agreement","Moderate Disagreement","Moderate Agreement","Moderate Disagreement","Moderate Agreement","Neither Agreement nor Disagreement","Slight Agreement","Slight Disagreement","Strong Agreement","Moderate Agreement","Moderate Agreement","Slight Agreement"
"4","AL1U6BGXX0WD5:3W92K5RLWVNQ2I84Z2UJAUMZSWE5VN","practice",1,4,1,"NA","<p style=""font-size:100px""><b>T</b></p><p style=""position: absolute; top: 30px; right: 30px; text-align:right; font-size:50px"""">N = 1</p>","T",1,73,140.29999999702,0,"agree",16,15,13,14,16,"25","Male","None","Slight Agreement","Slight Disagreement","Slight Agreement","Moderate Agreement","Slight Disagreement","Slight Agreement","Slight Agreement","Moderate Disagreement","Moderate Agreement","Moderate Disagreement","Moderate Agreement","Neither Agreement nor Disagreement","Slight Agreement","Slight Disagreement","Strong Agreement","Moderate Agreement","Moderate Agreement","Slight Agreement"
"5","AL1U6BGXX0WD5:3W92K5RLWVNQ2I84Z2UJAUMZSWE5VN","practice",1,5,1,"NA","<p style=""font-size:100px""><b>V</b></p><p style=""position: absolute; top: 30px; right: 30px; text-align:right; font-size:50px"""">N = 1</p>","V",0,69,299.59999999404,0,"agree",16,15,13,14,16,"25","Male","None","Slight Agreement","Slight Disagreement","Slight Agreement","Moderate Agreement","Slight Disagreement","Slight Agreement","Slight Agreement","Moderate Disagreement","Moderate Agreement","Moderate Disagreement","Moderate Agreement","Neither Agreement nor Disagreement","Slight Agreement","Slight Disagreement","Strong Agreement","Moderate Agreement","Moderate Agreement","Slight Agreement"
"6","AL1U6BGXX0WD5:3W92K5RLWVNQ2I84Z2UJAUMZSWE5VN","practice",1,6,1,"NA","<p style=""font-size:100px""><b>P</b></p><p style=""position: absolute; top: 30px; right: 30px; text-align:right; font-size:50px"""">N = 1</p>","P",0,73,518.70000000298,1,"agree",16,15,13,14,16,"25","Male","None","Slight Agreement","Slight Disagreement","Slight Agreement","Moderate Agreement","Slight Disagreement","Slight Agreement","Slight Agreement","Moderate Disagreement","Moderate Agreement","Moderate Disagreement","Moderate Agreement","Neither Agreement nor Disagreement","Slight Agreement","Slight Disagreement","Strong Agreement","Moderate Agreement","Moderate Agreement","Slight Agreement"
"7","AL1U6BGXX0WD5:3W92K5RLWVNQ2I84Z2UJAUMZSWE5VN","practice",1,7,1,"NA","<p style=""font-size:100px""><b>P</b></p><p style=""position: absolute; top: 30px; right: 30px; text-align:right; font-size:50px"""">N = 1</p>","P",1,73,637.29999999702,0,"agree",16,15,13,14,16,"25","Male","None","Slight Agreement","Slight Disagreement","Slight Agreement","Moderate Agreement","Slight Disagreement","Slight Agreement","Slight Agreement","Moderate Disagreement","Moderate Agreement","Moderate Disagreement","Moderate Agreement","Neither Agreement nor Disagreement","Slight Agreement","Slight Disagreement","Strong Agreement","Moderate Agreement","Moderate Agreement","Slight Agreement"
"8","AL1U6BGXX0WD5:3W92K5RLWVNQ2I84Z2UJAUMZSWE5VN","practice",1,8,1,"NA","<p style=""font-size:100px""><b>v</b></p><p style=""position: absolute; top: 30px; right: 30px; text-align:right; font-size:50px"""">N = 1</p>","v",0,69,675.5,0,"agree",16,15,13,14,16,"25","Male","None","Slight Agreement","Slight Disagreement","Slight Agreement","Moderate Agreement","Slight Disagreement","Slight Agreement","Slight Agreement","Moderate Disagreement","Moderate Agreement","Moderate Disagreement","Moderate Agreement","Neither Agreement nor Disagreement","Slight Agreement","Slight Disagreement","Strong Agreement","Moderate Agreement","Moderate Agreement","Slight Agreement"
"9","AL1U6BGXX0WD5:3W92K5RLWVNQ2I84Z2UJAUMZSWE5VN","practice",1,9,1,"NA","<p style=""font-size:100px""><b>v</b></p><p style=""position: absolute; top: 30px; right: 30px; text-align:right; font-size:50px"""">N = 1</p>","v",1,69,412.20000000298,1,"agree",16,15,13,14,16,"25","Male","None","Slight Agreement","Slight Disagreement","Slight Agreement","Moderate Agreement","Slight Disagreement","Slight Agreement","Slight Agreement","Moderate Disagreement","Moderate Agreement","Moderate Disagreement","Moderate Agreement","Neither Agreement nor Disagreement","Slight Agreement","Slight Disagreement","Strong Agreement","Moderate Agreement","Moderate Agreement","Slight Agreement"
"10","AL1U6BGXX0WD5:3W92K5RLWVNQ2I84Z2UJAUMZSWE5VN","practice",1,10,1,"NA","<p style=""font-size:100px""><b>B</b></p><p style=""position: absolute; top: 30px; right: 30px; text-align:right; font-size:50px"""">N = 1</p>","B",0,69,452.59999999404,0,"agree",16,15,13,14,16,"25","Male","None","Slight Agreement","Slight Disagreement","Slight Agreement","Moderate Agreement","Slight Disagreement","Slight Agreement","Slight Agreement","Moderate Disagreement","Moderate Agreement","Moderate Disagreement","Moderate Agreement","Neither Agreement nor Disagreement","Slight Agreement","Slight Disagreement","Strong Agreement","Moderate Agreement","Moderate Agreement","Slight Agreement"
"11","AL1U6BGXX0WD5:3W92K5RLWVNQ2I84Z2UJAUMZSWE5VN","practice",1,11,1,"NA","<p style=""font-size:100px""><b>B</b></p><p style=""position: absolute; top: 30px; right: 30px; text-align:right; font-size:50px"""">N = 1</p>","B",1,69,326.899999991059,1,"agree",16,15,13,14,16,"25","Male","None","Slight Agreement","Slight Disagreement","Slight Agreement","Moderate Agreement","Slight Disagreement","Slight Agreement","Slight Agreement","Moderate Disagreement","Moderate Agreement","Moderate Disagreement","Moderate Agreement","Neither Agreement nor Disagreement","Slight Agreement","Slight Disagreement","Strong Agreement","Moderate Agreement","Moderate Agreement","Slight Agreement"
"12","AL1U6BGXX0WD5:3W92K5RLWVNQ2I84Z2UJAUMZSWE5VN","practice",1,12,1,"NA","<p style=""font-size:100px""><b>g</b></p><p style=""position: absolute; top: 30px; right: 30px; text-align:right; font-size:50px"""">N = 1</p>","g",0,69,331.699999988079,0,"agree",16,15,13,14,16,"25","Male","None","Slight Agreement","Slight Disagreement","Slight Agreement","Moderate Agreement","Slight Disagreement","Slight Agreement","Slight Agreement","Moderate Disagreement","Moderate Agreement","Moderate Disagreement","Moderate Agreement","Neither Agreement nor Disagreement","Slight Agreement","Slight Disagreement","Strong Agreement","Moderate Agreement","Moderate Agreement","Slight Agreement"
"13","AL1U6BGXX0WD5:3W92K5RLWVNQ2I84Z2UJAUMZSWE5VN","practice",2,1,2,"NA","<p style=""font-size:100px""><b>P</b></p><p style=""position: absolute; top: 30px; right: 30px; text-align:right; font-size:50px"""">N = 2</p>","P",0,69,729.09999999404,0,"agree",16,15,13,14,16,"25","Male","None","Slight Agreement","Slight Disagreement","Slight Agreement","Moderate Agreement","Slight Disagreement","Slight Agreement","Slight Agreement","Moderate Disagreement","Moderate Agreement","Moderate Disagreement","Moderate Agreement","Neither Agreement nor Disagreement","Slight Agreement","Slight Disagreement","Strong Agreement","Moderate Agreement","Moderate Agreement","Slight Agreement"
"14","AL1U6BGXX0WD5:3W92K5RLWVNQ2I84Z2UJAUMZSWE5VN","practice",2,2,2,"NA","<p style=""font-size:100px""><b>D</b></p><p style=""position: absolute; top: 30px; right: 30px; text-align:right; font-size:50px"""">N = 2</p>","D",0,69,9.29999999701977,0,"agree",16,15,13,14,16,"25","Male","None","Slight Agreement","Slight Disagreement","Slight Agreement","Moderate Agreement","Slight Disagreement","Slight Agreement","Slight Agreement","Moderate Disagreement","Moderate Agreement","Moderate Disagreement","Moderate Agreement","Neither Agreement nor Disagreement","Slight Agreement","Slight Disagreement","Strong Agreement","Moderate Agreement","Moderate Agreement","Slight Agreement"
"15","AL1U6BGXX0WD5:3W92K5RLWVNQ2I84Z2UJAUMZSWE5VN","practice",2,3,2,"NA","<p style=""font-size:100px""><b>P</b></p><p style=""position: absolute; top: 30px; right: 30px; text-align:right; font-size:50px"""">N = 2</p>","P",1,69,128.09999999404,1,"agree",16,15,13,14,16,"25","Male","None","Slight Agreement","Slight Disagreement","Slight Agreement","Moderate Agreement","Slight Disagreement","Slight Agreement","Slight Agreement","Moderate Disagreement","Moderate Agreement","Moderate Disagreement","Moderate Agreement","Neither Agreement nor Disagreement","Slight Agreement","Slight Disagreement","Strong Agreement","Moderate Agreement","Moderate Agreement","Slight Agreement"
"16","AL1U6BGXX0WD5:3W92K5RLWVNQ2I84Z2UJAUMZSWE5VN","practice",2,4,2,"NA","<p style=""font-size:100px""><b>p</b></p><p style=""position: absolute; top: 30px; right: 30px; text-align:right; font-size:50px"""">N = 2</p>","p",0,69,108.79999999702,0,"agree",16,15,13,14,16,"25","Male","None","Slight Agreement","Slight Disagreement","Slight Agreement","Moderate Agreement","Slight Disagreement","Slight Agreement","Slight Agreement","Moderate Disagreement","Moderate Agreement","Moderate Disagreement","Moderate Agreement","Neither Agreement nor Disagreement","Slight Agreement","Slight Disagreement","Strong Agreement","Moderate Agreement","Moderate Agreement","Slight Agreement"
"17","AL1U6BGXX0WD5:3W92K5RLWVNQ2I84Z2UJAUMZSWE5VN","practice",2,5,2,"NA","<p style=""font-size:100px""><b>P</b></p><p style=""position: absolute; top: 30px; right: 30px; text-align:right; font-size:50px"""">N = 2</p>","P",1,73,76.3000000119209,0,"agree",16,15,13,14,16,"25","Male","None","Slight Agreement","Slight Disagreement","Slight Agreement","Moderate Agreement","Slight Disagreement","Slight Agreement","Slight Agreement","Moderate Disagreement","Moderate Agreement","Moderate Disagreement","Moderate Agreement","Neither Agreement nor Disagreement","Slight Agreement","Slight Disagreement","Strong Agreement","Moderate Agreement","Moderate Agreement","Slight Agreement"
"18","AL1U6BGXX0WD5:3W92K5RLWVNQ2I84Z2UJAUMZSWE5VN","practice",2,6,2,"NA","<p style=""font-size:100px""><b>p</b></p><p style=""position: absolute; top: 30px; right: 30px; text-align:right; font-size:50px"""">N = 2</p>","p",1,69,74.7000000029802,1,"agree",16,15,13,14,16,"25","Male","None","Slight Agreement","Slight Disagreement","Slight Agreement","Moderate Agreement","Slight Disagreement","Slight Agreement","Slight Agreement","Moderate Disagreement","Moderate Agreement","Moderate Disagreement","Moderate Agreement","Neither Agreement nor Disagreement","Slight Agreement","Slight Disagreement","Strong Agreement","Moderate Agreement","Moderate Agreement","Slight Agreement"
"19","AL1U6BGXX0WD5:3W92K5RLWVNQ2I84Z2UJAUMZSWE5VN","practice",2,7,2,"NA","<p style=""font-size:100px""><b>T</b></p><p style=""position: absolute; top: 30px; right: 30px; text-align:right; font-size:50px"""">N = 2</p>","T",0,69,164,0,"agree",16,15,13,14,16,"25","Male","None","Slight Agreement","Slight Disagreement","Slight Agreement","Moderate Agreement","Slight Disagreement","Slight Agreement","Slight Agreement","Moderate Disagreement","Moderate Agreement","Moderate Disagreement","Moderate Agreement","Neither Agreement nor Disagreement","Slight Agreement","Slight Disagreement","Strong Agreement","Moderate Agreement","Moderate Agreement","Slight Agreement"
"20","AL1U6BGXX0WD5:3W92K5RLWVNQ2I84Z2UJAUMZSWE5VN","practice",2,8,2,"NA","<p style=""font-size:100px""><b>G</b></p><p style=""position: absolute; top: 30px; right: 30px; text-align:right; font-size:50px"""">N = 2</p>","G",0,69,389.40000000596,0,"agree",16,15,13,14,16,"25","Male","None","Slight Agreement","Slight Disagreement","Slight Agreement","Moderate Agreement","Slight Disagreement","Slight Agreement","Slight Agreement","Moderate Disagreement","Moderate Agreement","Moderate Disagreement","Moderate Agreement","Neither Agreement nor Disagreement","Slight Agreement","Slight Disagreement","Strong Agreement","Moderate Agreement","Moderate Agreement","Slight Agreement"
"21","AL1U6BGXX0WD5:3W92K5RLWVNQ2I84Z2UJAUMZSWE5VN","practice",2,9,2,"NA","<p style=""font-size:100px""><b>T</b></p><p style=""position: absolute; top: 30px; right: 30px; text-align:right; font-size:50px"""">N = 2</p>","T",1,73,14.5,0,"agree",16,15,13,14,16,"25","Male","None","Slight Agreement","Slight Disagreement","Slight Agreement","Moderate Agreement","Slight Disagreement","Slight Agreement","Slight Agreement","Moderate Disagreement","Moderate Agreement","Moderate Disagreement","Moderate Agreement","Neither Agreement nor Disagreement","Slight Agreement","Slight Disagreement","Strong Agreement","Moderate Agreement","Moderate Agreement","Slight Agreement"
"22","AL1U6BGXX0WD5:3W92K5RLWVNQ2I84Z2UJAUMZSWE5VN","practice",2,10,2,"NA","<p style=""font-size:100px""><b>T</b></p><p style=""position: absolute; top: 30px; right: 30px; text-align:right; font-size:50px"""">N = 2</p>","T",0,69,17.5999999940395,0,"agree",16,15,13,14,16,"25","Male","None","Slight Agreement","Slight Disagreement","Slight Agreement","Moderate Agreement","Slight Disagreement","Slight Agreement","Slight Agreement","Moderate Disagreement","Moderate Agreement","Moderate Disagreement","Moderate Agreement","Neither Agreement nor Disagreement","Slight Agreement","Slight Disagreement","Strong Agreement","Moderate Agreement","Moderate Agreement","Slight Agreement"
"23","AL1U6BGXX0WD5:3W92K5RLWVNQ2I84Z2UJAUMZSWE5VN","practice",2,11,2,"NA","<p style=""font-size:100px""><b>b</b></p><p style=""position: absolute; top: 30px; right: 30px; text-align:right; font-size:50px"""">N = 2</p>","b",0,69,123.79999999702,0,"agree",16,15,13,14,16,"25","Male","None","Slight Agreement","Slight Disagreement","Slight Agreement","Moderate Agreement","Slight Disagreement","Slight Agreement","Slight Agreement","Moderate Disagreement","Moderate Agreement","Moderate Disagreement","Moderate Agreement","Neither Agreement nor Disagreement","Slight Agreement","Slight Disagreement","Strong Agreement","Moderate Agreement","Moderate Agreement","Slight Agreement"
"24","AL1U6BGXX0WD5:3W92K5RLWVNQ2I84Z2UJAUMZSWE5VN","practice",2,12,2,"NA","<p style=""font-size:100px""><b>b</b></p><p style=""position: absolute; top: 30px; right: 30px; text-align:right; font-size:50px"""">N = 2</p>","b",0,73,229,1,"agree",16,15,13,14,16,"25","Male","None","Slight Agreement","Slight Disagreement","Slight Agreement","Moderate Agreement","Slight Disagreement","Slight Agreement","Slight Agreement","Moderate Disagreement","Moderate Agreement","Moderate Disagreement","Moderate Agreement","Neither Agreement nor Disagreement","Slight Agreement","Slight Disagreement","Strong Agreement","Moderate Agreement","Moderate Agreement","Slight Agreement"
"25","AL1U6BGXX0WD5:3W92K5RLWVNQ2I84Z2UJAUMZSWE5VN","practice",3,1,3,"NA","<p style=""font-size:100px""><b>B</b></p><p style=""position: absolute; top: 30px; right: 30px; text-align:right; font-size:50px"""">N = 3</p>","B",0,73,986.600000008941,1,"agree",16,15,13,14,16,"25","Male","None","Slight Agreement","Slight Disagreement","Slight Agreement","Moderate Agreement","Slight Disagreement","Slight Agreement","Slight Agreement","Moderate Disagreement","Moderate Agreement","Moderate Disagreement","Moderate Agreement","Neither Agreement nor Disagreement","Slight Agreement","Slight Disagreement","Strong Agreement","Moderate Agreement","Moderate Agreement","Slight Agreement"
"26","AL1U6BGXX0WD5:3W92K5RLWVNQ2I84Z2UJAUMZSWE5VN","practice",3,2,3,"NA","<p style=""font-size:100px""><b>d</b></p><p style=""position: absolute; top: 30px; right: 30px; text-align:right; font-size:50px"""">N = 3</p>","d",0,73,1291.90000000596,1,"agree",16,15,13,14,16,"25","Male","None","Slight Agreement","Slight Disagreement","Slight Agreement","Moderate Agreement","Slight Disagreement","Slight Agreement","Slight Agreement","Moderate Disagreement","Moderate Agreement","Moderate Disagreement","Moderate Agreement","Neither Agreement nor Disagreement","Slight Agreement","Slight Disagreement","Strong Agreement","Moderate Agreement","Moderate Agreement","Slight Agreement"
"27","AL1U6BGXX0WD5:3W92K5RLWVNQ2I84Z2UJAUMZSWE5VN","practice",3,3,3,"NA","<p style=""font-size:100px""><b>G</b></p><p style=""position: absolute; top: 30px; right: 30px; text-align:right; font-size:50px"""">N = 3</p>","G",0,73,777,1,"agree",16,15,13,14,16,"25","Male","None","Slight Agreement","Slight Disagreement","Slight Agreement","Moderate Agreement","Slight Disagreement","Slight Agreement","Slight Agreement","Moderate Disagreement","Moderate Agreement","Moderate Disagreement","Moderate Agreement","Neither Agreement nor Disagreement","Slight Agreement","Slight Disagreement","Strong Agreement","Moderate Agreement","Moderate Agreement","Slight Agreement"
"28","AL1U6BGXX0WD5:3W92K5RLWVNQ2I84Z2UJAUMZSWE5VN","practice",3,4,3,"NA","<p style=""font-size:100px""><b>d</b></p><p style=""position: absolute; top: 30px; right: 30px; text-align:right; font-size:50px"""">N = 3</p>","d",0,73,718.5,1,"agree",16,15,13,14,16,"25","Male","None","Slight Agreement","Slight Disagreement","Slight Agreement","Moderate Agreement","Slight Disagreement","Slight Agreement","Slight Agreement","Moderate Disagreement","Moderate Agreement","Moderate Disagreement","Moderate Agreement","Neither Agreement nor Disagreement","Slight Agreement","Slight Disagreement","Strong Agreement","Moderate Agreement","Moderate Agreement","Slight Agreement"
"29","AL1U6BGXX0WD5:3W92K5RLWVNQ2I84Z2UJAUMZSWE5VN","practice",3,5,3,"NA","<p style=""font-size:100px""><b>d</b></p><p style=""position: absolute; top: 30px; right: 30px; text-align:right; font-size:50px"""">N = 3</p>","d",1,73,871.5,0,"agree",16,15,13,14,16,"25","Male","None","Slight Agreement","Slight Disagreement","Slight Agreement","Moderate Agreement","Slight Disagreement","Slight Agreement","Slight Agreement","Moderate Disagreement","Moderate Agreement","Moderate Disagreement","Moderate Agreement","Neither Agreement nor Disagreement","Slight Agreement","Slight Disagreement","Strong Agreement","Moderate Agreement","Moderate Agreement","Slight Agreement"
"30","AL1U6BGXX0WD5:3W92K5RLWVNQ2I84Z2UJAUMZSWE5VN","practice",3,6,3,"NA","<p style=""font-size:100px""><b>p</b></p><p style=""position: absolute; top: 30px; right: 30px; text-align:right; font-size:50px"""">N = 3</p>","p",0,73,706.600000008941,1,"agree",16,15,13,14,16,"25","Male","None","Slight Agreement","Slight Disagreement","Slight Agreement","Moderate Agreement","Slight Disagreement","Slight Agreement","Slight Agreement","Moderate Disagreement","Moderate Agreement","Moderate Disagreement","Moderate Agreement","Neither Agreement nor Disagreement","Slight Agreement","Slight Disagreement","Strong Agreement","Moderate Agreement","Moderate Agreement","Slight Agreement"
"31","AL1U6BGXX0WD5:3W92K5RLWVNQ2I84Z2UJAUMZSWE5VN","practice",3,7,3,"NA","<p style=""font-size:100px""><b>d</b></p><p style=""position: absolute; top: 30px; right: 30px; text-align:right; font-size:50px"""">N = 3</p>","d",1,73,846.79999999702,0,"agree",16,15,13,14,16,"25","Male","None","Slight Agreement","Slight Disagreement","Slight Agreement","Moderate Agreement","Slight Disagreement","Slight Agreement","Slight Agreement","Moderate Disagreement","Moderate Agreement","Moderate Disagreement","Moderate Agreement","Neither Agreement nor Disagreement","Slight Agreement","Slight Disagreement","Strong Agreement","Moderate Agreement","Moderate Agreement","Slight Agreement"
"32","AL1U6BGXX0WD5:3W92K5RLWVNQ2I84Z2UJAUMZSWE5VN","practice",3,8,3,"NA","<p style=""font-size:100px""><b>t</b></p><p style=""position: absolute; top: 30px; right: 30px; text-align:right; font-size:50px"""">N = 3</p>","t",0,73,621.70000000298,1,"agree",16,15,13,14,16,"25","Male","None","Slight Agreement","Slight Disagreement","Slight Agreement","Moderate Agreement","Slight Disagreement","Slight Agreement","Slight Agreement","Moderate Disagreement","Moderate Agreement","Moderate Disagreement","Moderate Agreement","Neither Agreement nor Disagreement","Slight Agreement","Slight Disagreement","Strong Agreement","Moderate Agreement","Moderate Agreement","Slight Agreement"
"33","AL1U6BGXX0WD5:3W92K5RLWVNQ2I84Z2UJAUMZSWE5VN","practice",3,9,3,"NA","<p style=""font-size:100px""><b>b</b></p><p style=""position: absolute; top: 30px; right: 30px; text-align:right; font-size:50px"""">N = 3</p>","b",0,69,850.09999999404,0,"agree",16,15,13,14,16,"25","Male","None","Slight Agreement","Slight Disagreement","Slight Agreement","Moderate Agreement","Slight Disagreement","Slight Agreement","Slight Agreement","Moderate Disagreement","Moderate Agreement","Moderate Disagreement","Moderate Agreement","Neither Agreement nor Disagreement","Slight Agreement","Slight Disagreement","Strong Agreement","Moderate Agreement","Moderate Agreement","Slight Agreement"
"34","AL1U6BGXX0WD5:3W92K5RLWVNQ2I84Z2UJAUMZSWE5VN","practice",3,10,3,"NA","<p style=""font-size:100px""><b>d</b></p><p style=""position: absolute; top: 30px; right: 30px; text-align:right; font-size:50px"""">N = 3</p>","d",1,73,560.79999999702,0,"agree",16,15,13,14,16,"25","Male","None","Slight Agreement","Slight Disagreement","Slight Agreement","Moderate Agreement","Slight Disagreement","Slight Agreement","Slight Agreement","Moderate Disagreement","Moderate Agreement","Moderate Disagreement","Moderate Agreement","Neither Agreement nor Disagreement","Slight Agreement","Slight Disagreement","Strong Agreement","Moderate Agreement","Moderate Agreement","Slight Agreement"
"35","AL1U6BGXX0WD5:3W92K5RLWVNQ2I84Z2UJAUMZSWE5VN","practice",3,11,3,"NA","<p style=""font-size:100px""><b>t</b></p><p style=""position: absolute; top: 30px; right: 30px; text-align:right; font-size:50px"""">N = 3</p>","t",1,73,747.29999999702,0,"agree",16,15,13,14,16,"25","Male","None","Slight Agreement","Slight Disagreement","Slight Agreement","Moderate Agreement","Slight Disagreement","Slight Agreement","Slight Agreement","Moderate Disagreement","Moderate Agreement","Moderate Disagreement","Moderate Agreement","Neither Agreement nor Disagreement","Slight Agreement","Slight Disagreement","Strong Agreement","Moderate Agreement","Moderate Agreement","Slight Agreement"
"36","AL1U6BGXX0WD5:3W92K5RLWVNQ2I84Z2UJAUMZSWE5VN","practice",3,12,3,"NA","<p style=""font-size:100px""><b>D</b></p><p style=""position: absolute; top: 30px; right: 30px; text-align:right; font-size:50px"""">N = 3</p>","D",0,69,736.40000000596,0,"agree",16,15,13,14,16,"25","Male","None","Slight Agreement","Slight Disagreement","Slight Agreement","Moderate Agreement","Slight Disagreement","Slight Agreement","Slight Agreement","Moderate Disagreement","Moderate Agreement","Moderate Disagreement","Moderate Agreement","Neither Agreement nor Disagreement","Slight Agreement","Slight Disagreement","Strong Agreement","Moderate Agreement","Moderate Agreement","Slight Agreement"
"37","AL1U6BGXX0WD5:3W92K5RLWVNQ2I84Z2UJAUMZSWE5VN","1",1,1,3,"5","<p style=""font-size:100px""><b>T</b></p><p style=""position: absolute; top: 30px; right: 30px; text-align:right; font-size:50px"""">N = 3</p>","T",0,NA,NA,0,"agree",16,15,13,14,16,"25","Male","None","Slight Agreement","Slight Disagreement","Slight Agreement","Moderate Agreement","Slight Disagreement","Slight Agreement","Slight Agreement","Moderate Disagreement","Moderate Agreement","Moderate Disagreement","Moderate Agreement","Neither Agreement nor Disagreement","Slight Agreement","Slight Disagreement","Strong Agreement","Moderate Agreement","Moderate Agreement","Slight Agreement"
"38","AL1U6BGXX0WD5:3W92K5RLWVNQ2I84Z2UJAUMZSWE5VN","1",1,2,3,"5","<p style=""font-size:100px""><b>p</b></p><p style=""position: absolute; top: 30px; right: 30px; text-align:right; font-size:50px"""">N = 3</p>","p",0,73,665.59999999404,1,"agree",16,15,13,14,16,"25","Male","None","Slight Agreement","Slight Disagreement","Slight Agreement","Moderate Agreement","Slight Disagreement","Slight Agreement","Slight Agreement","Moderate Disagreement","Moderate Agreement","Moderate Disagreement","Moderate Agreement","Neither Agreement nor Disagreement","Slight Agreement","Slight Disagreement","Strong Agreement","Moderate Agreement","Moderate Agreement","Slight Agreement"
"39","AL1U6BGXX0WD5:3W92K5RLWVNQ2I84Z2UJAUMZSWE5VN","1",1,3,3,"5","<p style=""font-size:100px""><b>b</b></p><p style=""position: absolute; top: 30px; right: 30px; text-align:right; font-size:50px"""">N = 3</p>","b",0,69,162.29999999702,0,"agree",16,15,13,14,16,"25","Male","None","Slight Agreement","Slight Disagreement","Slight Agreement","Moderate Agreement","Slight Disagreement","Slight Agreement","Slight Agreement","Moderate Disagreement","Moderate Agreement","Moderate Disagreement","Moderate Agreement","Neither Agreement nor Disagreement","Slight Agreement","Slight Disagreement","Strong Agreement","Moderate Agreement","Moderate Agreement","Slight Agreement"
"40","AL1U6BGXX0WD5:3W92K5RLWVNQ2I84Z2UJAUMZSWE5VN","1",1,4,3,"5","<p style=""font-size:100px""><b>T</b></p><p style=""position: absolute; top: 30px; right: 30px; text-align:right; font-size:50px"""">N = 3</p>","T",0,69,32.2999999970198,0,"agree",16,15,13,14,16,"25","Male","None","Slight Agreement","Slight Disagreement","Slight Agreement","Moderate Agreement","Slight Disagreement","Slight Agreement","Slight Agreement","Moderate Disagreement","Moderate Agreement","Moderate Disagreement","Moderate Agreement","Neither Agreement nor Disagreement","Slight Agreement","Slight Disagreement","Strong Agreement","Moderate Agreement","Moderate Agreement","Slight Agreement"
"41","AL1U6BGXX0WD5:3W92K5RLWVNQ2I84Z2UJAUMZSWE5VN","1",1,5,3,"5","<p style=""font-size:100px""><b>t</b></p><p style=""position: absolute; top: 30px; right: 30px; text-align:right; font-size:50px"""">N = 3</p>","t",0,73,9.1000000089407,1,"agree",16,15,13,14,16,"25","Male","None","Slight Agreement","Slight Disagreement","Slight Agreement","Moderate Agreement","Slight Disagreement","Slight Agreement","Slight Agreement","Moderate Disagreement","Moderate Agreement","Moderate Disagreement","Moderate Agreement","Neither Agreement nor Disagreement","Slight Agreement","Slight Disagreement","Strong Agreement","Moderate Agreement","Moderate Agreement","Slight Agreement"
"42","AL1U6BGXX0WD5:3W92K5RLWVNQ2I84Z2UJAUMZSWE5VN","1",1,6,3,"5","<p style=""font-size:100px""><b>V</b></p><p style=""position: absolute; top: 30px; right: 30px; text-align:right; font-size:50px"""">N = 3</p>","V",0,73,79.4000000059605,1,"agree",16,15,13,14,16,"25","Male","None","Slight Agreement","Slight Disagreement","Slight Agreement","Moderate Agreement","Slight Disagreement","Slight Agreement","Slight Agreement","Moderate Disagreement","Moderate Agreement","Moderate Disagreement","Moderate Agreement","Neither Agreement nor Disagreement","Slight Agreement","Slight Disagreement","Strong Agreement","Moderate Agreement","Moderate Agreement","Slight Agreement"
"43","AL1U6BGXX0WD5:3W92K5RLWVNQ2I84Z2UJAUMZSWE5VN","1",1,7,3,"5","<p style=""font-size:100px""><b>T</b></p><p style=""position: absolute; top: 30px; right: 30px; text-align:right; font-size:50px"""">N = 3</p>","T",0,69,0.0999999940395355,0,"agree",16,15,13,14,16,"25","Male","None","Slight Agreement","Slight Disagreement","Slight Agreement","Moderate Agreement","Slight Disagreement","Slight Agreement","Slight Agreement","Moderate Disagreement","Moderate Agreement","Moderate Disagreement","Moderate Agreement","Neither Agreement nor Disagreement","Slight Agreement","Slight Disagreement","Strong Agreement","Moderate Agreement","Moderate Agreement","Slight Agreement"
"44","AL1U6BGXX0WD5:3W92K5RLWVNQ2I84Z2UJAUMZSWE5VN","1",1,8,3,"5","<p style=""font-size:100px""><b>d</b></p><p style=""position: absolute; top: 30px; right: 30px; text-align:right; font-size:50px"""">N = 3</p>","d",0,73,24.7999999970198,1,"agree",16,15,13,14,16,"25","Male","None","Slight Agreement","Slight Disagreement","Slight Agreement","Moderate Agreement","Slight Disagreement","Slight Agreement","Slight Agreement","Moderate Disagreement","Moderate Agreement","Moderate Disagreement","Moderate Agreement","Neither Agreement nor Disagreement","Slight Agreement","Slight Disagreement","Strong Agreement","Moderate Agreement","Moderate Agreement","Slight Agreement"
"45","AL1U6BGXX0WD5:3W92K5RLWVNQ2I84Z2UJAUMZSWE5VN","1",1,9,3,"5","<p style=""font-size:100px""><b>b</b></p><p style=""position: absolute; top: 30px; right: 30px; text-align:right; font-size:50px"""">N = 3</p>","b",0,73,74.5,1,"agree",16,15,13,14,16,"25","Male","None","Slight Agreement","Slight Disagreement","Slight Agreement","Moderate Agreement","Slight Disagreement","Slight Agreement","Slight Agreement","Moderate Disagreement","Moderate Agreement","Moderate Disagreement","Moderate Agreement","Neither Agreement nor Disagreement","Slight Agreement","Slight Disagreement","Strong Agreement","Moderate Agreement","Moderate Agreement","Slight Agreement"
"46","AL1U6BGXX0WD5:3W92K5RLWVNQ2I84Z2UJAUMZSWE5VN","1",1,10,3,"5","<p style=""font-size:100px""><b>T</b></p><p style=""position: absolute; top: 30px; right: 30px; text-align:right; font-size:50px"""">N = 3</p>","T",0,73,42.2000000029802,1,"agree",16,15,13,14,16,"25","Male","None","Slight Agreement","Slight Disagreement","Slight Agreement","Moderate Agreement","Slight Disagreement","Slight Agreement","Slight Agreement","Moderate Disagreement","Moderate Agreement","Moderate Disagreement","Moderate Agreement","Neither Agreement nor Disagreement","Slight Agreement","Slight Disagreement","Strong Agreement","Moderate Agreement","Moderate Agreement","Slight Agreement"
"47","AL1U6BGXX0WD5:3W92K5RLWVNQ2I84Z2UJAUMZSWE5VN","1",1,11,3,"5","<p style=""font-size:100px""><b>d</b></p><p style=""position: absolute; top: 30px; right: 30px; text-align:right; font-size:50px"""">N = 3</p>","d",0,73,9.20000000298023,1,"agree",16,15,13,14,16,"25","Male","None","Slight Agreement","Slight Disagreement","Slight Agreement","Moderate Agreement","Slight Disagreement","Slight Agreement","Slight Agreement","Moderate Disagreement","Moderate Agreement","Moderate Disagreement","Moderate Agreement","Neither Agreement nor Disagreement","Slight Agreement","Slight Disagreement","Strong Agreement","Moderate Agreement","Moderate Agreement","Slight Agreement"
"48","AL1U6BGXX0WD5:3W92K5RLWVNQ2I84Z2UJAUMZSWE5VN","1",1,12,3,"5","<p style=""font-size:100px""><b>P</b></p><p style=""position: absolute; top: 30px; right: 30px; text-align:right; font-size:50px"""">N = 3</p>","P",0,73,33.5999999940395,1,"agree",16,15,13,14,16,"25","Male","None","Slight Agreement","Slight Disagreement","Slight Agreement","Moderate Agreement","Slight Disagreement","Slight Agreement","Slight Agreement","Moderate Disagreement","Moderate Agreement","Moderate Disagreement","Moderate Agreement","Neither Agreement nor Disagreement","Slight Agreement","Slight Disagreement","Strong Agreement","Moderate Agreement","Moderate Agreement","Slight Agreement"
"49","AL1U6BGXX0WD5:3W92K5RLWVNQ2I84Z2UJAUMZSWE5VN","1",2,1,1,"50","<p style=""font-size:100px""><b>v</b></p><p style=""position: absolute; top: 30px; right: 30px; text-align:right; font-size:50px"""">N = 1</p>","v",0,73,213.79999999702,1,"agree",15,14,14,15,15,"25","Male","None","Slight Agreement","Slight Disagreement","Slight Agreement","Moderate Agreement","Slight Disagreement","Slight Agreement","Slight Agreement","Moderate Disagreement","Moderate Agreement","Moderate Disagreement","Moderate Agreement","Neither Agreement nor Disagreement","Slight Agreement","Slight Disagreement","Strong Agreement","Moderate Agreement","Moderate Agreement","Slight Agreement"
"50","AL1U6BGXX0WD5:3W92K5RLWVNQ2I84Z2UJAUMZSWE5VN","1",2,2,1,"50","<p style=""font-size:100px""><b>D</b></p><p style=""position: absolute; top: 30px; right: 30px; text-align:right; font-size:50px"""">N = 1</p>","D",0,73,81.9000000059605,1,"agree",15,14,14,15,15,"25","Male","None","Slight Agreement","Slight Disagreement","Slight Agreement","Moderate Agreement","Slight Disagreement","Slight Agreement","Slight Agreement","Moderate Disagreement","Moderate Agreement","Moderate Disagreement","Moderate Agreement","Neither Agreement nor Disagreement","Slight Agreement","Slight Disagreement","Strong Agreement","Moderate Agreement","Moderate Agreement","Slight Agreement"
"51","AL1U6BGXX0WD5:3W92K5RLWVNQ2I84Z2UJAUMZSWE5VN","1",2,3,1,"50","<p style=""font-size:100px""><b>T</b></p><p style=""position: absolute; top: 30px; right: 30px; text-align:right; font-size:50px"""">N = 1</p>","T",0,69,20.7999999970198,0,"agree",15,14,14,15,15,"25","Male","None","Slight Agreement","Slight Disagreement","Slight Agreement","Moderate Agreement","Slight Disagreement","Slight Agreement","Slight Agreement","Moderate Disagreement","Moderate Agreement","Moderate Disagreement","Moderate Agreement","Neither Agreement nor Disagreement","Slight Agreement","Slight Disagreement","Strong Agreement","Moderate Agreement","Moderate Agreement","Slight Agreement"
"52","AL1U6BGXX0WD5:3W92K5RLWVNQ2I84Z2UJAUMZSWE5VN","1",2,4,1,"50","<p style=""font-size:100px""><b>T</b></p><p style=""position: absolute; top: 30px; right: 30px; text-align:right; font-size:50px"""">N = 1</p>","T",0,69,5.40000000596046,0,"agree",15,14,14,15,15,"25","Male","None","Slight Agreement","Slight Disagreement","Slight Agreement","Moderate Agreement","Slight Disagreement","Slight Agreement","Slight Agreement","Moderate Disagreement","Moderate Agreement","Moderate Disagreement","Moderate Agreement","Neither Agreement nor Disagreement","Slight Agreement","Slight Disagreement","Strong Agreement","Moderate Agreement","Moderate Agreement","Slight Agreement"
"53","AL1U6BGXX0WD5:3W92K5RLWVNQ2I84Z2UJAUMZSWE5VN","1",2,5,1,"50","<p style=""font-size:100px""><b>T</b></p><p style=""position: absolute; top: 30px; right: 30px; text-align:right; font-size:50px"""">N = 1</p>","T",0,73,13.9000000059605,1,"agree",15,14,14,15,15,"25","Male","None","Slight Agreement","Slight Disagreement","Slight Agreement","Moderate Agreement","Slight Disagreement","Slight Agreement","Slight Agreement","Moderate Disagreement","Moderate Agreement","Moderate Disagreement","Moderate Agreement","Neither Agreement nor Disagreement","Slight Agreement","Slight Disagreement","Strong Agreement","Moderate Agreement","Moderate Agreement","Slight Agreement"
"54","AL1U6BGXX0WD5:3W92K5RLWVNQ2I84Z2UJAUMZSWE5VN","1",2,6,1,"50","<p style=""font-size:100px""><b>g</b></p><p style=""position: absolute; top: 30px; right: 30px; text-align:right; font-size:50px"""">N = 1</p>","g",0,73,11.7999999970198,1,"agree",15,14,14,15,15,"25","Male","None","Slight Agreement","Slight Disagreement","Slight Agreement","Moderate Agreement","Slight Disagreement","Slight Agreement","Slight Agreement","Moderate Disagreement","Moderate Agreement","Moderate Disagreement","Moderate Agreement","Neither Agreement nor Disagreement","Slight Agreement","Slight Disagreement","Strong Agreement","Moderate Agreement","Moderate Agreement","Slight Agreement"
"55","AL1U6BGXX0WD5:3W92K5RLWVNQ2I84Z2UJAUMZSWE5VN","1",2,7,1,"50","<p style=""font-size:100px""><b>d</b></p><p style=""position: absolute; top: 30px; right: 30px; text-align:right; font-size:50px"""">N = 1</p>","d",0,73,37.2000000029802,1,"agree",15,14,14,15,15,"25","Male","None","Slight Agreement","Slight Disagreement","Slight Agreement","Moderate Agreement","Slight Disagreement","Slight Agreement","Slight Agreement","Moderate Disagreement","Moderate Agreement","Moderate Disagreement","Moderate Agreement","Neither Agreement nor Disagreement","Slight Agreement","Slight Disagreement","Strong Agreement","Moderate Agreement","Moderate Agreement","Slight Agreement"
"56","AL1U6BGXX0WD5:3W92K5RLWVNQ2I84Z2UJAUMZSWE5VN","1",2,8,1,"50","<p style=""font-size:100px""><b>d</b></p><p style=""position: absolute; top: 30px; right: 30px; text-align:right; font-size:50px"""">N = 1</p>","d",0,73,7.6000000089407,1,"agree",15,14,14,15,15,"25","Male","None","Slight Agreement","Slight Disagreement","Slight Agreement","Moderate Agreement","Slight Disagreement","Slight Agreement","Slight Agreement","Moderate Disagreement","Moderate Agreement","Moderate Disagreement","Moderate Agreement","Neither Agreement nor Disagreement","Slight Agreement","Slight Disagreement","Strong Agreement","Moderate Agreement","Moderate Agreement","Slight Agreement"
"57","AL1U6BGXX0WD5:3W92K5RLWVNQ2I84Z2UJAUMZSWE5VN","1",2,9,1,"50","<p style=""font-size:100px""><b>b</b></p><p style=""position: absolute; top: 30px; right: 30px; text-align:right; font-size:50px"""">N = 1</p>","b",0,73,15.5,1,"agree",15,14,14,15,15,"25","Male","None","Slight Agreement","Slight Disagreement","Slight Agreement","Moderate Agreement","Slight Disagreement","Slight Agreement","Slight Agreement","Moderate Disagreement","Moderate Agreement","Moderate Disagreement","Moderate Agreement","Neither Agreement nor Disagreement","Slight Agreement","Slight Disagreement","Strong Agreement","Moderate Agreement","Moderate Agreement","Slight Agreement"
"58","AL1U6BGXX0WD5:3W92K5RLWVNQ2I84Z2UJAUMZSWE5VN","1",2,10,1,"50","<p style=""font-size:100px""><b>b</b></p><p style=""position: absolute; top: 30px; right: 30px; text-align:right; font-size:50px"""">N = 1</p>","b",0,73,8.79999999701977,1,"agree",15,14,14,15,15,"25","Male","None","Slight Agreement","Slight Disagreement","Slight Agreement","Moderate Agreement","Slight Disagreement","Slight Agreement","Slight Agreement","Moderate Disagreement","Moderate Agreement","Moderate Disagreement","Moderate Agreement","Neither Agreement nor Disagreement","Slight Agreement","Slight Disagreement","Strong Agreement","Moderate Agreement","Moderate Agreement","Slight Agreement"
"59","AL1U6BGXX0WD5:3W92K5RLWVNQ2I84Z2UJAUMZSWE5VN","1",2,11,1,"50","<p style=""font-size:100px""><b>V</b></p><p style=""position: absolute; top: 30px; right: 30px; text-align:right; font-size:50px"""">N = 1</p>","V",0,73,7.5,1,"agree",15,14,14,15,15,"25","Male","None","Slight Agreement","Slight Disagreement","Slight Agreement","Moderate Agreement","Slight Disagreement","Slight Agreement","Slight Agreement","Moderate Disagreement","Moderate Agreement","Moderate Disagreement","Moderate Agreement","Neither Agreement nor Disagreement","Slight Agreement","Slight Disagreement","Strong Agreement","Moderate Agreement","Moderate Agreement","Slight Agreement"
"60","AL1U6BGXX0WD5:3W92K5RLWVNQ2I84Z2UJAUMZSWE5VN","1",2,12,1,"50","<p style=""font-size:100px""><b>d</b></p><p style=""position: absolute; top: 30px; right: 30px; text-align:right; font-size:50px"""">N = 1</p>","d",0,NA,NA,0,"agree",15,14,14,15,15,"25","Male","None","Slight Agreement","Slight Disagreement","Slight Agreement","Moderate Agreement","Slight Disagreement","Slight Agreement","Slight Agreement","Moderate Disagreement","Moderate Agreement","Moderate Disagreement","Moderate Agreement","Neither Agreement nor Disagreement","Slight Agreement","Slight Disagreement","Strong Agreement","Moderate Agreement","Moderate Agreement","Slight Agreement"
"61","AL1U6BGXX0WD5:3W92K5RLWVNQ2I84Z2UJAUMZSWE5VN","1",3,1,2,"5","<p style=""font-size:100px""><b>G</b></p><p style=""position: absolute; top: 30px; right: 30px; text-align:right; font-size:50px"""">N = 2</p>","G",0,69,596.40000000596,0,"agree",16,16,14,14,15,"25","Male","None","Slight Agreement","Slight Disagreement","Slight Agreement","Moderate Agreement","Slight Disagreement","Slight Agreement","Slight Agreement","Moderate Disagreement","Moderate Agreement","Moderate Disagreement","Moderate Agreement","Neither Agreement nor Disagreement","Slight Agreement","Slight Disagreement","Strong Agreement","Moderate Agreement","Moderate Agreement","Slight Agreement"
"62","AL1U6BGXX0WD5:3W92K5RLWVNQ2I84Z2UJAUMZSWE5VN","1",3,2,2,"5","<p style=""font-size:100px""><b>T</b></p><p style=""position: absolute; top: 30px; right: 30px; text-align:right; font-size:50px"""">N = 2</p>","T",0,69,142.40000000596,0,"agree",16,16,14,14,15,"25","Male","None","Slight Agreement","Slight Disagreement","Slight Agreement","Moderate Agreement","Slight Disagreement","Slight Agreement","Slight Agreement","Moderate Disagreement","Moderate Agreement","Moderate Disagreement","Moderate Agreement","Neither Agreement nor Disagreement","Slight Agreement","Slight Disagreement","Strong Agreement","Moderate Agreement","Moderate Agreement","Slight Agreement"
"63","AL1U6BGXX0WD5:3W92K5RLWVNQ2I84Z2UJAUMZSWE5VN","1",3,3,2,"5","<p style=""font-size:100px""><b>V</b></p><p style=""position: absolute; top: 30px; right: 30px; text-align:right; font-size:50px"""">N = 2</p>","V",0,73,32.2999999970198,1,"agree",16,16,14,14,15,"25","Male","None","Slight Agreement","Slight Disagreement","Slight Agreement","Moderate Agreement","Slight Disagreement","Slight Agreement","Slight Agreement","Moderate Disagreement","Moderate Agreement","Moderate Disagreement","Moderate Agreement","Neither Agreement nor Disagreement","Slight Agreement","Slight Disagreement","Strong Agreement","Moderate Agreement","Moderate Agreement","Slight Agreement"
"64","AL1U6BGXX0WD5:3W92K5RLWVNQ2I84Z2UJAUMZSWE5VN","1",3,4,2,"5","<p style=""font-size:100px""><b>T</b></p><p style=""position: absolute; top: 30px; right: 30px; text-align:right; font-size:50px"""">N = 2</p>","T",0,69,89.9000000059605,0,"agree",16,16,14,14,15,"25","Male","None","Slight Agreement","Slight Disagreement","Slight Agreement","Moderate Agreement","Slight Disagreement","Slight Agreement","Slight Agreement","Moderate Disagreement","Moderate Agreement","Moderate Disagreement","Moderate Agreement","Neither Agreement nor Disagreement","Slight Agreement","Slight Disagreement","Strong Agreement","Moderate Agreement","Moderate Agreement","Slight Agreement"
"65","AL1U6BGXX0WD5:3W92K5RLWVNQ2I84Z2UJAUMZSWE5VN","1",3,5,2,"5","<p style=""font-size:100px""><b>P</b></p><p style=""position: absolute; top: 30px; right: 30px; text-align:right; font-size:50px"""">N = 2</p>","P",0,69,97.2000000029802,0,"agree",16,16,14,14,15,"25","Male","None","Slight Agreement","Slight Disagreement","Slight Agreement","Moderate Agreement","Slight Disagreement","Slight Agreement","Slight Agreement","Moderate Disagreement","Moderate Agreement","Moderate Disagreement","Moderate Agreement","Neither Agreement nor Disagreement","Slight Agreement","Slight Disagreement","Strong Agreement","Moderate Agreement","Moderate Agreement","Slight Agreement"
"66","AL1U6BGXX0WD5:3W92K5RLWVNQ2I84Z2UJAUMZSWE5VN","1",3,6,2,"5","<p style=""font-size:100px""><b>T</b></p><p style=""position: absolute; top: 30px; right: 30px; text-align:right; font-size:50px"""">N = 2</p>","T",0,69,12.4000000059605,0,"agree",16,16,14,14,15,"25","Male","None","Slight Agreement","Slight Disagreement","Slight Agreement","Moderate Agreement","Slight Disagreement","Slight Agreement","Slight Agreement","Moderate Disagreement","Moderate Agreement","Moderate Disagreement","Moderate Agreement","Neither Agreement nor Disagreement","Slight Agreement","Slight Disagreement","Strong Agreement","Moderate Agreement","Moderate Agreement","Slight Agreement"
"67","AL1U6BGXX0WD5:3W92K5RLWVNQ2I84Z2UJAUMZSWE5VN","1",3,7,2,"5","<p style=""font-size:100px""><b>P</b></p><p style=""position: absolute; top: 30px; right: 30px; text-align:right; font-size:50px"""">N = 2</p>","P",0,73,143.600000008941,1,"agree",16,16,14,14,15,"25","Male","None","Slight Agreement","Slight Disagreement","Slight Agreement","Moderate Agreement","Slight Disagreement","Slight Agreement","Slight Agreement","Moderate Disagreement","Moderate Agreement","Moderate Disagreement","Moderate Agreement","Neither Agreement nor Disagreement","Slight Agreement","Slight Disagreement","Strong Agreement","Moderate Agreement","Moderate Agreement","Slight Agreement"
"68","AL1U6BGXX0WD5:3W92K5RLWVNQ2I84Z2UJAUMZSWE5VN","1",3,8,2,"5","<p style=""font-size:100px""><b>T</b></p><p style=""position: absolute; top: 30px; right: 30px; text-align:right; font-size:50px"""">N = 2</p>","T",0,73,20.2999999970198,1,"agree",16,16,14,14,15,"25","Male","None","Slight Agreement","Slight Disagreement","Slight Agreement","Moderate Agreement","Slight Disagreement","Slight Agreement","Slight Agreement","Moderate Disagreement","Moderate Agreement","Moderate Disagreement","Moderate Agreement","Neither Agreement nor Disagreement","Slight Agreement","Slight Disagreement","Strong Agreement","Moderate Agreement","Moderate Agreement","Slight Agreement"
"69","AL1U6BGXX0WD5:3W92K5RLWVNQ2I84Z2UJAUMZSWE5VN","1",3,9,2,"5","<p style=""font-size:100px""><b>b</b></p><p style=""position: absolute; top: 30px; right: 30px; text-align:right; font-size:50px"""">N = 2</p>","b",0,73,198.70000000298,1,"agree",16,16,14,14,15,"25","Male","None","Slight Agreement","Slight Disagreement","Slight Agreement","Moderate Agreement","Slight Disagreement","Slight Agreement","Slight Agreement","Moderate Disagreement","Moderate Agreement","Moderate Disagreement","Moderate Agreement","Neither Agreement nor Disagreement","Slight Agreement","Slight Disagreement","Strong Agreement","Moderate Agreement","Moderate Agreement","Slight Agreement"
"70","AL1U6BGXX0WD5:3W92K5RLWVNQ2I84Z2UJAUMZSWE5VN","1",3,10,2,"5","<p style=""font-size:100px""><b>v</b></p><p style=""position: absolute; top: 30px; right: 30px; text-align:right; font-size:50px"""">N = 2</p>","v",0,69,48.7999999970198,0,"agree",16,16,14,14,15,"25","Male","None","Slight Agreement","Slight Disagreement","Slight Agreement","Moderate Agreement","Slight Disagreement","Slight Agreement","Slight Agreement","Moderate Disagreement","Moderate Agreement","Moderate Disagreement","Moderate Agreement","Neither Agreement nor Disagreement","Slight Agreement","Slight Disagreement","Strong Agreement","Moderate Agreement","Moderate Agreement","Slight Agreement"
"71","AL1U6BGXX0WD5:3W92K5RLWVNQ2I84Z2UJAUMZSWE5VN","1",3,11,2,"5","<p style=""font-size:100px""><b>p</b></p><p style=""position: absolute; top: 30px; right: 30px; text-align:right; font-size:50px"""">N = 2</p>","p",0,69,37.7000000029802,0,"agree",16,16,14,14,15,"25","Male","None","Slight Agreement","Slight Disagreement","Slight Agreement","Moderate Agreement","Slight Disagreement","Slight Agreement","Slight Agreement","Moderate Disagreement","Moderate Agreement","Moderate Disagreement","Moderate Agreement","Neither Agreement nor Disagreement","Slight Agreement","Slight Disagreement","Strong Agreement","Moderate Agreement","Moderate Agreement","Slight Agreement"
"72","AL1U6BGXX0WD5:3W92K5RLWVNQ2I84Z2UJAUMZSWE5VN","1",3,12,2,"5","<p style=""font-size:100px""><b>g</b></p><p style=""position: absolute; top: 30px; right: 30px; text-align:right; font-size:50px"""">N = 2</p>","g",0,73,75.7000000029802,1,"agree",16,16,14,14,15,"25","Male","None","Slight Agreement","Slight Disagreement","Slight Agreement","Moderate Agreement","Slight Disagreement","Slight Agreement","Slight Agreement","Moderate Disagreement","Moderate Agreement","Moderate Disagreement","Moderate Agreement","Neither Agreement nor Disagreement","Slight Agreement","Slight Disagreement","Strong Agreement","Moderate Agreement","Moderate Agreement","Slight Agreement"
"73","AL1U6BGXX0WD5:3W92K5RLWVNQ2I84Z2UJAUMZSWE5VN","1",4,1,2,"5","<p style=""font-size:100px""><b>T</b></p><p style=""position: absolute; top: 30px; right: 30px; text-align:right; font-size:50px"""">N = 2</p>","T",0,73,606.79999999702,1,"agree",15,15,14,15,16,"25","Male","None","Slight Agreement","Slight Disagreement","Slight Agreement","Moderate Agreement","Slight Disagreement","Slight Agreement","Slight Agreement","Moderate Disagreement","Moderate Agreement","Moderate Disagreement","Moderate Agreement","Neither Agreement nor Disagreement","Slight Agreement","Slight Disagreement","Strong Agreement","Moderate Agreement","Moderate Agreement","Slight Agreement"
"74","AL1U6BGXX0WD5:3W92K5RLWVNQ2I84Z2UJAUMZSWE5VN","1",4,2,2,"5","<p style=""font-size:100px""><b>G</b></p><p style=""position: absolute; top: 30px; right: 30px; text-align:right; font-size:50px"""">N = 2</p>","G",0,73,19.7000000029802,1,"agree",15,15,14,15,16,"25","Male","None","Slight Agreement","Slight Disagreement","Slight Agreement","Moderate Agreement","Slight Disagreement","Slight Agreement","Slight Agreement","Moderate Disagreement","Moderate Agreement","Moderate Disagreement","Moderate Agreement","Neither Agreement nor Disagreement","Slight Agreement","Slight Disagreement","Strong Agreement","Moderate Agreement","Moderate Agreement","Slight Agreement"
"75","AL1U6BGXX0WD5:3W92K5RLWVNQ2I84Z2UJAUMZSWE5VN","1",4,3,2,"5","<p style=""font-size:100px""><b>V</b></p><p style=""position: absolute; top: 30px; right: 30px; text-align:right; font-size:50px"""">N = 2</p>","V",0,73,6.79999999701977,1,"agree",15,15,14,15,16,"25","Male","None","Slight Agreement","Slight Disagreement","Slight Agreement","Moderate Agreement","Slight Disagreement","Slight Agreement","Slight Agreement","Moderate Disagreement","Moderate Agreement","Moderate Disagreement","Moderate Agreement","Neither Agreement nor Disagreement","Slight Agreement","Slight Disagreement","Strong Agreement","Moderate Agreement","Moderate Agreement","Slight Agreement"
"76","AL1U6BGXX0WD5:3W92K5RLWVNQ2I84Z2UJAUMZSWE5VN","1",4,4,2,"5","<p style=""font-size:100px""><b>v</b></p><p style=""position: absolute; top: 30px; right: 30px; text-align:right; font-size:50px"""">N = 2</p>","v",0,69,222.899999991059,0,"agree",15,15,14,15,16,"25","Male","None","Slight Agreement","Slight Disagreement","Slight Agreement","Moderate Agreement","Slight Disagreement","Slight Agreement","Slight Agreement","Moderate Disagreement","Moderate Agreement","Moderate Disagreement","Moderate Agreement","Neither Agreement nor Disagreement","Slight Agreement","Slight Disagreement","Strong Agreement","Moderate Agreement","Moderate Agreement","Slight Agreement"
"77","AL1U6BGXX0WD5:3W92K5RLWVNQ2I84Z2UJAUMZSWE5VN","1",4,5,2,"5","<p style=""font-size:100px""><b>p</b></p><p style=""position: absolute; top: 30px; right: 30px; text-align:right; font-size:50px"""">N = 2</p>","p",0,73,87.2000000029802,1,"agree",15,15,14,15,16,"25","Male","None","Slight Agreement","Slight Disagreement","Slight Agreement","Moderate Agreement","Slight Disagreement","Slight Agreement","Slight Agreement","Moderate Disagreement","Moderate Agreement","Moderate Disagreement","Moderate Agreement","Neither Agreement nor Disagreement","Slight Agreement","Slight Disagreement","Strong Agreement","Moderate Agreement","Moderate Agreement","Slight Agreement"
"78","AL1U6BGXX0WD5:3W92K5RLWVNQ2I84Z2UJAUMZSWE5VN","1",4,6,2,"5","<p style=""font-size:100px""><b>v</b></p><p style=""position: absolute; top: 30px; right: 30px; text-align:right; font-size:50px"""">N = 2</p>","v",0,73,63.3999999910593,1,"agree",15,15,14,15,16,"25","Male","None","Slight Agreement","Slight Disagreement","Slight Agreement","Moderate Agreement","Slight Disagreement","Slight Agreement","Slight Agreement","Moderate Disagreement","Moderate Agreement","Moderate Disagreement","Moderate Agreement","Neither Agreement nor Disagreement","Slight Agreement","Slight Disagreement","Strong Agreement","Moderate Agreement","Moderate Agreement","Slight Agreement"
"79","AL1U6BGXX0WD5:3W92K5RLWVNQ2I84Z2UJAUMZSWE5VN","1",4,7,2,"5","<p style=""font-size:100px""><b>b</b></p><p style=""position: absolute; top: 30px; right: 30px; text-align:right; font-size:50px"""">N = 2</p>","b",0,73,88.8000000119209,1,"agree",15,15,14,15,16,"25","Male","None","Slight Agreement","Slight Disagreement","Slight Agreement","Moderate Agreement","Slight Disagreement","Slight Agreement","Slight Agreement","Moderate Disagreement","Moderate Agreement","Moderate Disagreement","Moderate Agreement","Neither Agreement nor Disagreement","Slight Agreement","Slight Disagreement","Strong Agreement","Moderate Agreement","Moderate Agreement","Slight Agreement"
"80","AL1U6BGXX0WD5:3W92K5RLWVNQ2I84Z2UJAUMZSWE5VN","1",4,8,2,"5","<p style=""font-size:100px""><b>v</b></p><p style=""position: absolute; top: 30px; right: 30px; text-align:right; font-size:50px"""">N = 2</p>","v",0,73,22.1000000089407,1,"agree",15,15,14,15,16,"25","Male","None","Slight Agreement","Slight Disagreement","Slight Agreement","Moderate Agreement","Slight Disagreement","Slight Agreement","Slight Agreement","Moderate Disagreement","Moderate Agreement","Moderate Disagreement","Moderate Agreement","Neither Agreement nor Disagreement","Slight Agreement","Slight Disagreement","Strong Agreement","Moderate Agreement","Moderate Agreement","Slight Agreement"
"81","AL1U6BGXX0WD5:3W92K5RLWVNQ2I84Z2UJAUMZSWE5VN","1",4,9,2,"5","<p style=""font-size:100px""><b>T</b></p><p style=""position: absolute; top: 30px; right: 30px; text-align:right; font-size:50px"""">N = 2</p>","T",0,73,53.2000000029802,1,"agree",15,15,14,15,16,"25","Male","None","Slight Agreement","Slight Disagreement","Slight Agreement","Moderate Agreement","Slight Disagreement","Slight Agreement","Slight Agreement","Moderate Disagreement","Moderate Agreement","Moderate Disagreement","Moderate Agreement","Neither Agreement nor Disagreement","Slight Agreement","Slight Disagreement","Strong Agreement","Moderate Agreement","Moderate Agreement","Slight Agreement"
"82","AL1U6BGXX0WD5:3W92K5RLWVNQ2I84Z2UJAUMZSWE5VN","1",4,10,2,"5","<p style=""font-size:100px""><b>v</b></p><p style=""position: absolute; top: 30px; right: 30px; text-align:right; font-size:50px"""">N = 2</p>","v",0,73,228.20000000298,1,"agree",15,15,14,15,16,"25","Male","None","Slight Agreement","Slight Disagreement","Slight Agreement","Moderate Agreement","Slight Disagreement","Slight Agreement","Slight Agreement","Moderate Disagreement","Moderate Agreement","Moderate Disagreement","Moderate Agreement","Neither Agreement nor Disagreement","Slight Agreement","Slight Disagreement","Strong Agreement","Moderate Agreement","Moderate Agreement","Slight Agreement"
"83","AL1U6BGXX0WD5:3W92K5RLWVNQ2I84Z2UJAUMZSWE5VN","1",4,11,2,"5","<p style=""font-size:100px""><b>T</b></p><p style=""position: absolute; top: 30px; right: 30px; text-align:right; font-size:50px"""">N = 2</p>","T",0,69,31.9000000059605,0,"agree",15,15,14,15,16,"25","Male","None","Slight Agreement","Slight Disagreement","Slight Agreement","Moderate Agreement","Slight Disagreement","Slight Agreement","Slight Agreement","Moderate Disagreement","Moderate Agreement","Moderate Disagreement","Moderate Agreement","Neither Agreement nor Disagreement","Slight Agreement","Slight Disagreement","Strong Agreement","Moderate Agreement","Moderate Agreement","Slight Agreement"
"84","AL1U6BGXX0WD5:3W92K5RLWVNQ2I84Z2UJAUMZSWE5VN","1",4,12,2,"5","<p style=""font-size:100px""><b>d</b></p><p style=""position: absolute; top: 30px; right: 30px; text-align:right; font-size:50px"""">N = 2</p>","d",0,73,0.700000002980232,1,"agree",15,15,14,15,16,"25","Male","None","Slight Agreement","Slight Disagreement","Slight Agreement","Moderate Agreement","Slight Disagreement","Slight Agreement","Slight Agreement","Moderate Disagreement","Moderate Agreement","Moderate Disagreement","Moderate Agreement","Neither Agreement nor Disagreement","Slight Agreement","Slight Disagreement","Strong Agreement","Moderate Agreement","Moderate Agreement","Slight Agreement"
"85","AL1U6BGXX0WD5:3W92K5RLWVNQ2I84Z2UJAUMZSWE5VN","1",5,1,2,"5","<p style=""font-size:100px""><b>g</b></p><p style=""position: absolute; top: 30px; right: 30px; text-align:right; font-size:50px"""">N = 2</p>","g",0,NA,NA,0,"agree",14,15,15,14,15,"25","Male","None","Slight Agreement","Slight Disagreement","Slight Agreement","Moderate Agreement","Slight Disagreement","Slight Agreement","Slight Agreement","Moderate Disagreement","Moderate Agreement","Moderate Disagreement","Moderate Agreement","Neither Agreement nor Disagreement","Slight Agreement","Slight Disagreement","Strong Agreement","Moderate Agreement","Moderate Agreement","Slight Agreement"
"86","AL1U6BGXX0WD5:3W92K5RLWVNQ2I84Z2UJAUMZSWE5VN","1",5,2,2,"5","<p style=""font-size:100px""><b>V</b></p><p style=""position: absolute; top: 30px; right: 30px; text-align:right; font-size:50px"""">N = 2</p>","V",0,NA,NA,0,"agree",14,15,15,14,15,"25","Male","None","Slight Agreement","Slight Disagreement","Slight Agreement","Moderate Agreement","Slight Disagreement","Slight Agreement","Slight Agreement","Moderate Disagreement","Moderate Agreement","Moderate Disagreement","Moderate Agreement","Neither Agreement nor Disagreement","Slight Agreement","Slight Disagreement","Strong Agreement","Moderate Agreement","Moderate Agreement","Slight Agreement"
"87","AL1U6BGXX0WD5:3W92K5RLWVNQ2I84Z2UJAUMZSWE5VN","1",5,3,2,"5","<p style=""font-size:100px""><b>v</b></p><p style=""position: absolute; top: 30px; right: 30px; text-align:right; font-size:50px"""">N = 2</p>","v",0,73,365.800000011921,1,"agree",14,15,15,14,15,"25","Male","None","Slight Agreement","Slight Disagreement","Slight Agreement","Moderate Agreement","Slight Disagreement","Slight Agreement","Slight Agreement","Moderate Disagreement","Moderate Agreement","Moderate Disagreement","Moderate Agreement","Neither Agreement nor Disagreement","Slight Agreement","Slight Disagreement","Strong Agreement","Moderate Agreement","Moderate Agreement","Slight Agreement"
"88","AL1U6BGXX0WD5:3W92K5RLWVNQ2I84Z2UJAUMZSWE5VN","1",5,4,2,"5","<p style=""font-size:100px""><b>T</b></p><p style=""position: absolute; top: 30px; right: 30px; text-align:right; font-size:50px"""">N = 2</p>","T",0,73,69.1000000089407,1,"agree",14,15,15,14,15,"25","Male","None","Slight Agreement","Slight Disagreement","Slight Agreement","Moderate Agreement","Slight Disagreement","Slight Agreement","Slight Agreement","Moderate Disagreement","Moderate Agreement","Moderate Disagreement","Moderate Agreement","Neither Agreement nor Disagreement","Slight Agreement","Slight Disagreement","Strong Agreement","Moderate Agreement","Moderate Agreement","Slight Agreement"
"89","AL1U6BGXX0WD5:3W92K5RLWVNQ2I84Z2UJAUMZSWE5VN","1",5,5,2,"5","<p style=""font-size:100px""><b>b</b></p><p style=""position: absolute; top: 30px; right: 30px; text-align:right; font-size:50px"""">N = 2</p>","b",0,69,258.5,0,"agree",14,15,15,14,15,"25","Male","None","Slight Agreement","Slight Disagreement","Slight Agreement","Moderate Agreement","Slight Disagreement","Slight Agreement","Slight Agreement","Moderate Disagreement","Moderate Agreement","Moderate Disagreement","Moderate Agreement","Neither Agreement nor Disagreement","Slight Agreement","Slight Disagreement","Strong Agreement","Moderate Agreement","Moderate Agreement","Slight Agreement"
"90","AL1U6BGXX0WD5:3W92K5RLWVNQ2I84Z2UJAUMZSWE5VN","1",5,6,2,"5","<p style=""font-size:100px""><b>P</b></p><p style=""position: absolute; top: 30px; right: 30px; text-align:right; font-size:50px"""">N = 2</p>","P",0,73,145.70000000298,1,"agree",14,15,15,14,15,"25","Male","None","Slight Agreement","Slight Disagreement","Slight Agreement","Moderate Agreement","Slight Disagreement","Slight Agreement","Slight Agreement","Moderate Disagreement","Moderate Agreement","Moderate Disagreement","Moderate Agreement","Neither Agreement nor Disagreement","Slight Agreement","Slight Disagreement","Strong Agreement","Moderate Agreement","Moderate Agreement","Slight Agreement"
"91","AL1U6BGXX0WD5:3W92K5RLWVNQ2I84Z2UJAUMZSWE5VN","1",5,7,2,"5","<p style=""font-size:100px""><b>b</b></p><p style=""position: absolute; top: 30px; right: 30px; text-align:right; font-size:50px"""">N = 2</p>","b",0,73,22.7000000029802,1,"agree",14,15,15,14,15,"25","Male","None","Slight Agreement","Slight Disagreement","Slight Agreement","Moderate Agreement","Slight Disagreement","Slight Agreement","Slight Agreement","Moderate Disagreement","Moderate Agreement","Moderate Disagreement","Moderate Agreement","Neither Agreement nor Disagreement","Slight Agreement","Slight Disagreement","Strong Agreement","Moderate Agreement","Moderate Agreement","Slight Agreement"
"92","AL1U6BGXX0WD5:3W92K5RLWVNQ2I84Z2UJAUMZSWE5VN","1",5,8,2,"5","<p style=""font-size:100px""><b>d</b></p><p style=""position: absolute; top: 30px; right: 30px; text-align:right; font-size:50px"""">N = 2</p>","d",0,73,10.5,1,"agree",14,15,15,14,15,"25","Male","None","Slight Agreement","Slight Disagreement","Slight Agreement","Moderate Agreement","Slight Disagreement","Slight Agreement","Slight Agreement","Moderate Disagreement","Moderate Agreement","Moderate Disagreement","Moderate Agreement","Neither Agreement nor Disagreement","Slight Agreement","Slight Disagreement","Strong Agreement","Moderate Agreement","Moderate Agreement","Slight Agreement"
"93","AL1U6BGXX0WD5:3W92K5RLWVNQ2I84Z2UJAUMZSWE5VN","1",5,9,2,"5","<p style=""font-size:100px""><b>b</b></p><p style=""position: absolute; top: 30px; right: 30px; text-align:right; font-size:50px"""">N = 2</p>","b",0,73,12.6999999880791,1,"agree",14,15,15,14,15,"25","Male","None","Slight Agreement","Slight Disagreement","Slight Agreement","Moderate Agreement","Slight Disagreement","Slight Agreement","Slight Agreement","Moderate Disagreement","Moderate Agreement","Moderate Disagreement","Moderate Agreement","Neither Agreement nor Disagreement","Slight Agreement","Slight Disagreement","Strong Agreement","Moderate Agreement","Moderate Agreement","Slight Agreement"
"94","AL1U6BGXX0WD5:3W92K5RLWVNQ2I84Z2UJAUMZSWE5VN","1",5,10,2,"5","<p style=""font-size:100px""><b>V</b></p><p style=""position: absolute; top: 30px; right: 30px; text-align:right; font-size:50px"""">N = 2</p>","V",0,73,141.5,1,"agree",14,15,15,14,15,"25","Male","None","Slight Agreement","Slight Disagreement","Slight Agreement","Moderate Agreement","Slight Disagreement","Slight Agreement","Slight Agreement","Moderate Disagreement","Moderate Agreement","Moderate Disagreement","Moderate Agreement","Neither Agreement nor Disagreement","Slight Agreement","Slight Disagreement","Strong Agreement","Moderate Agreement","Moderate Agreement","Slight Agreement"
"95","AL1U6BGXX0WD5:3W92K5RLWVNQ2I84Z2UJAUMZSWE5VN","1",5,11,2,"5","<p style=""font-size:100px""><b>b</b></p><p style=""position: absolute; top: 30px; right: 30px; text-align:right; font-size:50px"""">N = 2</p>","b",0,73,270.79999999702,1,"agree",14,15,15,14,15,"25","Male","None","Slight Agreement","Slight Disagreement","Slight Agreement","Moderate Agreement","Slight Disagreement","Slight Agreement","Slight Agreement","Moderate Disagreement","Moderate Agreement","Moderate Disagreement","Moderate Agreement","Neither Agreement nor Disagreement","Slight Agreement","Slight Disagreement","Strong Agreement","Moderate Agreement","Moderate Agreement","Slight Agreement"
"96","AL1U6BGXX0WD5:3W92K5RLWVNQ2I84Z2UJAUMZSWE5VN","1",5,12,2,"5","<p style=""font-size:100px""><b>V</b></p><p style=""position: absolute; top: 30px; right: 30px; text-align:right; font-size:50px"""">N = 2</p>","V",0,73,116,1,"agree",14,15,15,14,15,"25","Male","None","Slight Agreement","Slight Disagreement","Slight Agreement","Moderate Agreement","Slight Disagreement","Slight Agreement","Slight Agreement","Moderate Disagreement","Moderate Agreement","Moderate Disagreement","Moderate Agreement","Neither Agreement nor Disagreement","Slight Agreement","Slight Disagreement","Strong Agreement","Moderate Agreement","Moderate Agreement","Slight Agreement"
"97","AL1U6BGXX0WD5:3W92K5RLWVNQ2I84Z2UJAUMZSWE5VN","1",6,1,1,"50","<p style=""font-size:100px""><b>B</b></p><p style=""position: absolute; top: 30px; right: 30px; text-align:right; font-size:50px"""">N = 1</p>","B",0,NA,NA,0,"agree",15,14,15,14,17,"25","Male","None","Slight Agreement","Slight Disagreement","Slight Agreement","Moderate Agreement","Slight Disagreement","Slight Agreement","Slight Agreement","Moderate Disagreement","Moderate Agreement","Moderate Disagreement","Moderate Agreement","Neither Agreement nor Disagreement","Slight Agreement","Slight Disagreement","Strong Agreement","Moderate Agreement","Moderate Agreement","Slight Agreement"
"98","AL1U6BGXX0WD5:3W92K5RLWVNQ2I84Z2UJAUMZSWE5VN","1",6,2,1,"50","<p style=""font-size:100px""><b>V</b></p><p style=""position: absolute; top: 30px; right: 30px; text-align:right; font-size:50px"""">N = 1</p>","V",0,69,737.300000011921,0,"agree",15,14,15,14,17,"25","Male","None","Slight Agreement","Slight Disagreement","Slight Agreement","Moderate Agreement","Slight Disagreement","Slight Agreement","Slight Agreement","Moderate Disagreement","Moderate Agreement","Moderate Disagreement","Moderate Agreement","Neither Agreement nor Disagreement","Slight Agreement","Slight Disagreement","Strong Agreement","Moderate Agreement","Moderate Agreement","Slight Agreement"
"99","AL1U6BGXX0WD5:3W92K5RLWVNQ2I84Z2UJAUMZSWE5VN","1",6,3,1,"50","<p style=""font-size:100px""><b>t</b></p><p style=""position: absolute; top: 30px; right: 30px; text-align:right; font-size:50px"""">N = 1</p>","t",0,73,25.5,1,"agree",15,14,15,14,17,"25","Male","None","Slight Agreement","Slight Disagreement","Slight Agreement","Moderate Agreement","Slight Disagreement","Slight Agreement","Slight Agreement","Moderate Disagreement","Moderate Agreement","Moderate Disagreement","Moderate Agreement","Neither Agreement nor Disagreement","Slight Agreement","Slight Disagreement","Strong Agreement","Moderate Agreement","Moderate Agreement","Slight Agreement"
"100","AL1U6BGXX0WD5:3W92K5RLWVNQ2I84Z2UJAUMZSWE5VN","1",6,4,1,"50","<p style=""font-size:100px""><b>v</b></p><p style=""position: absolute; top: 30px; right: 30px; text-align:right; font-size:50px"""">N = 1</p>","v",0,73,27.2999999970198,1,"agree",15,14,15,14,17,"25","Male","None","Slight Agreement","Slight Disagreement","Slight Agreement","Moderate Agreement","Slight Disagreement","Slight Agreement","Slight Agreement","Moderate Disagreement","Moderate Agreement","Moderate Disagreement","Moderate Agreement","Neither Agreement nor Disagreement","Slight Agreement","Slight Disagreement","Strong Agreement","Moderate Agreement","Moderate Agreement","Slight Agreement"
"101","AL1U6BGXX0WD5:3W92K5RLWVNQ2I84Z2UJAUMZSWE5VN","1",6,5,1,"50","<p style=""font-size:100px""><b>T</b></p><p style=""position: absolute; top: 30px; right: 30px; text-align:right; font-size:50px"""">N = 1</p>","T",0,73,51.1000000089407,1,"agree",15,14,15,14,17,"25","Male","None","Slight Agreement","Slight Disagreement","Slight Agreement","Moderate Agreement","Slight Disagreement","Slight Agreement","Slight Agreement","Moderate Disagreement","Moderate Agreement","Moderate Disagreement","Moderate Agreement","Neither Agreement nor Disagreement","Slight Agreement","Slight Disagreement","Strong Agreement","Moderate Agreement","Moderate Agreement","Slight Agreement"
"102","AL1U6BGXX0WD5:3W92K5RLWVNQ2I84Z2UJAUMZSWE5VN","1",6,6,1,"50","<p style=""font-size:100px""><b>T</b></p><p style=""position: absolute; top: 30px; right: 30px; text-align:right; font-size:50px"""">N = 1</p>","T",0,73,57.0999999940395,1,"agree",15,14,15,14,17,"25","Male","None","Slight Agreement","Slight Disagreement","Slight Agreement","Moderate Agreement","Slight Disagreement","Slight Agreement","Slight Agreement","Moderate Disagreement","Moderate Agreement","Moderate Disagreement","Moderate Agreement","Neither Agreement nor Disagreement","Slight Agreement","Slight Disagreement","Strong Agreement","Moderate Agreement","Moderate Agreement","Slight Agreement"
"103","AL1U6BGXX0WD5:3W92K5RLWVNQ2I84Z2UJAUMZSWE5VN","1",6,7,1,"50","<p style=""font-size:100px""><b>b</b></p><p style=""position: absolute; top: 30px; right: 30px; text-align:right; font-size:50px"""">N = 1</p>","b",0,69,180.20000000298,0,"agree",15,14,15,14,17,"25","Male","None","Slight Agreement","Slight Disagreement","Slight Agreement","Moderate Agreement","Slight Disagreement","Slight Agreement","Slight Agreement","Moderate Disagreement","Moderate Agreement","Moderate Disagreement","Moderate Agreement","Neither Agreement nor Disagreement","Slight Agreement","Slight Disagreement","Strong Agreement","Moderate Agreement","Moderate Agreement","Slight Agreement"
"104","AL1U6BGXX0WD5:3W92K5RLWVNQ2I84Z2UJAUMZSWE5VN","1",6,8,1,"50","<p style=""font-size:100px""><b>V</b></p><p style=""position: absolute; top: 30px; right: 30px; text-align:right; font-size:50px"""">N = 1</p>","V",0,73,0.599999994039536,1,"agree",15,14,15,14,17,"25","Male","None","Slight Agreement","Slight Disagreement","Slight Agreement","Moderate Agreement","Slight Disagreement","Slight Agreement","Slight Agreement","Moderate Disagreement","Moderate Agreement","Moderate Disagreement","Moderate Agreement","Neither Agreement nor Disagreement","Slight Agreement","Slight Disagreement","Strong Agreement","Moderate Agreement","Moderate Agreement","Slight Agreement"
"105","AL1U6BGXX0WD5:3W92K5RLWVNQ2I84Z2UJAUMZSWE5VN","1",6,9,1,"50","<p style=""font-size:100px""><b>D</b></p><p style=""position: absolute; top: 30px; right: 30px; text-align:right; font-size:50px"""">N = 1</p>","D",0,69,107.90000000596,0,"agree",15,14,15,14,17,"25","Male","None","Slight Agreement","Slight Disagreement","Slight Agreement","Moderate Agreement","Slight Disagreement","Slight Agreement","Slight Agreement","Moderate Disagreement","Moderate Agreement","Moderate Disagreement","Moderate Agreement","Neither Agreement nor Disagreement","Slight Agreement","Slight Disagreement","Strong Agreement","Moderate Agreement","Moderate Agreement","Slight Agreement"
"106","AL1U6BGXX0WD5:3W92K5RLWVNQ2I84Z2UJAUMZSWE5VN","1",6,10,1,"50","<p style=""font-size:100px""><b>D</b></p><p style=""position: absolute; top: 30px; right: 30px; text-align:right; font-size:50px"""">N = 1</p>","D",0,69,13.5,0,"agree",15,14,15,14,17,"25","Male","None","Slight Agreement","Slight Disagreement","Slight Agreement","Moderate Agreement","Slight Disagreement","Slight Agreement","Slight Agreement","Moderate Disagreement","Moderate Agreement","Moderate Disagreement","Moderate Agreement","Neither Agreement nor Disagreement","Slight Agreement","Slight Disagreement","Strong Agreement","Moderate Agreement","Moderate Agreement","Slight Agreement"
"107","AL1U6BGXX0WD5:3W92K5RLWVNQ2I84Z2UJAUMZSWE5VN","1",6,11,1,"50","<p style=""font-size:100px""><b>D</b></p><p style=""position: absolute; top: 30px; right: 30px; text-align:right; font-size:50px"""">N = 1</p>","D",0,73,53.2999999970198,1,"agree",15,14,15,14,17,"25","Male","None","Slight Agreement","Slight Disagreement","Slight Agreement","Moderate Agreement","Slight Disagreement","Slight Agreement","Slight Agreement","Moderate Disagreement","Moderate Agreement","Moderate Disagreement","Moderate Agreement","Neither Agreement nor Disagreement","Slight Agreement","Slight Disagreement","Strong Agreement","Moderate Agreement","Moderate Agreement","Slight Agreement"
"108","AL1U6BGXX0WD5:3W92K5RLWVNQ2I84Z2UJAUMZSWE5VN","1",6,12,1,"50","<p style=""font-size:100px""><b>D</b></p><p style=""position: absolute; top: 30px; right: 30px; text-align:right; font-size:50px"""">N = 1</p>","D",0,69,109.5,0,"agree",15,14,15,14,17,"25","Male","None","Slight Agreement","Slight Disagreement","Slight Agreement","Moderate Agreement","Slight Disagreement","Slight Agreement","Slight Agreement","Moderate Disagreement","Moderate Agreement","Moderate Disagreement","Moderate Agreement","Neither Agreement nor Disagreement","Slight Agreement","Slight Disagreement","Strong Agreement","Moderate Agreement","Moderate Agreement","Slight Agreement"
"109","AL1U6BGXX0WD5:3W92K5RLWVNQ2I84Z2UJAUMZSWE5VN","2",7,1,3,"50","<p style=""font-size:100px""><b>p</b></p><p style=""position: absolute; top: 30px; right: 30px; text-align:right; font-size:50px"""">N = 3</p>","p",0,73,328.5,1,"agree",14,15,15,14,17,"25","Male","None","Slight Agreement","Slight Disagreement","Slight Agreement","Moderate Agreement","Slight Disagreement","Slight Agreement","Slight Agreement","Moderate Disagreement","Moderate Agreement","Moderate Disagreement","Moderate Agreement","Neither Agreement nor Disagreement","Slight Agreement","Slight Disagreement","Strong Agreement","Moderate Agreement","Moderate Agreement","Slight Agreement"
"110","AL1U6BGXX0WD5:3W92K5RLWVNQ2I84Z2UJAUMZSWE5VN","2",7,2,3,"50","<p style=""font-size:100px""><b>P</b></p><p style=""position: absolute; top: 30px; right: 30px; text-align:right; font-size:50px"""">N = 3</p>","P",0,73,31.7000000029802,1,"agree",14,15,15,14,17,"25","Male","None","Slight Agreement","Slight Disagreement","Slight Agreement","Moderate Agreement","Slight Disagreement","Slight Agreement","Slight Agreement","Moderate Disagreement","Moderate Agreement","Moderate Disagreement","Moderate Agreement","Neither Agreement nor Disagreement","Slight Agreement","Slight Disagreement","Strong Agreement","Moderate Agreement","Moderate Agreement","Slight Agreement"
"111","AL1U6BGXX0WD5:3W92K5RLWVNQ2I84Z2UJAUMZSWE5VN","2",7,3,3,"50","<p style=""font-size:100px""><b>g</b></p><p style=""position: absolute; top: 30px; right: 30px; text-align:right; font-size:50px"""">N = 3</p>","g",0,73,28.5999999940395,1,"agree",14,15,15,14,17,"25","Male","None","Slight Agreement","Slight Disagreement","Slight Agreement","Moderate Agreement","Slight Disagreement","Slight Agreement","Slight Agreement","Moderate Disagreement","Moderate Agreement","Moderate Disagreement","Moderate Agreement","Neither Agreement nor Disagreement","Slight Agreement","Slight Disagreement","Strong Agreement","Moderate Agreement","Moderate Agreement","Slight Agreement"
"112","AL1U6BGXX0WD5:3W92K5RLWVNQ2I84Z2UJAUMZSWE5VN","2",7,4,3,"50","<p style=""font-size:100px""><b>p</b></p><p style=""position: absolute; top: 30px; right: 30px; text-align:right; font-size:50px"""">N = 3</p>","p",0,69,0.0999999940395355,0,"agree",14,15,15,14,17,"25","Male","None","Slight Agreement","Slight Disagreement","Slight Agreement","Moderate Agreement","Slight Disagreement","Slight Agreement","Slight Agreement","Moderate Disagreement","Moderate Agreement","Moderate Disagreement","Moderate Agreement","Neither Agreement nor Disagreement","Slight Agreement","Slight Disagreement","Strong Agreement","Moderate Agreement","Moderate Agreement","Slight Agreement"
"113","AL1U6BGXX0WD5:3W92K5RLWVNQ2I84Z2UJAUMZSWE5VN","2",7,5,3,"50","<p style=""font-size:100px""><b>B</b></p><p style=""position: absolute; top: 30px; right: 30px; text-align:right; font-size:50px"""">N = 3</p>","B",0,73,144.40000000596,1,"agree",14,15,15,14,17,"25","Male","None","Slight Agreement","Slight Disagreement","Slight Agreement","Moderate Agreement","Slight Disagreement","Slight Agreement","Slight Agreement","Moderate Disagreement","Moderate Agreement","Moderate Disagreement","Moderate Agreement","Neither Agreement nor Disagreement","Slight Agreement","Slight Disagreement","Strong Agreement","Moderate Agreement","Moderate Agreement","Slight Agreement"
"114","AL1U6BGXX0WD5:3W92K5RLWVNQ2I84Z2UJAUMZSWE5VN","2",7,6,3,"50","<p style=""font-size:100px""><b>B</b></p><p style=""position: absolute; top: 30px; right: 30px; text-align:right; font-size:50px"""">N = 3</p>","B",0,69,182,0,"agree",14,15,15,14,17,"25","Male","None","Slight Agreement","Slight Disagreement","Slight Agreement","Moderate Agreement","Slight Disagreement","Slight Agreement","Slight Agreement","Moderate Disagreement","Moderate Agreement","Moderate Disagreement","Moderate Agreement","Neither Agreement nor Disagreement","Slight Agreement","Slight Disagreement","Strong Agreement","Moderate Agreement","Moderate Agreement","Slight Agreement"
"115","AL1U6BGXX0WD5:3W92K5RLWVNQ2I84Z2UJAUMZSWE5VN","2",7,7,3,"50","<p style=""font-size:100px""><b>p</b></p><p style=""position: absolute; top: 30px; right: 30px; text-align:right; font-size:50px"""">N = 3</p>","p",0,73,7,1,"agree",14,15,15,14,17,"25","Male","None","Slight Agreement","Slight Disagreement","Slight Agreement","Moderate Agreement","Slight Disagreement","Slight Agreement","Slight Agreement","Moderate Disagreement","Moderate Agreement","Moderate Disagreement","Moderate Agreement","Neither Agreement nor Disagreement","Slight Agreement","Slight Disagreement","Strong Agreement","Moderate Agreement","Moderate Agreement","Slight Agreement"
"116","AL1U6BGXX0WD5:3W92K5RLWVNQ2I84Z2UJAUMZSWE5VN","2",7,8,3,"50","<p style=""font-size:100px""><b>v</b></p><p style=""position: absolute; top: 30px; right: 30px; text-align:right; font-size:50px"""">N = 3</p>","v",0,73,0.5,1,"agree",14,15,15,14,17,"25","Male","None","Slight Agreement","Slight Disagreement","Slight Agreement","Moderate Agreement","Slight Disagreement","Slight Agreement","Slight Agreement","Moderate Disagreement","Moderate Agreement","Moderate Disagreement","Moderate Agreement","Neither Agreement nor Disagreement","Slight Agreement","Slight Disagreement","Strong Agreement","Moderate Agreement","Moderate Agreement","Slight Agreement"
"117","AL1U6BGXX0WD5:3W92K5RLWVNQ2I84Z2UJAUMZSWE5VN","2",7,9,3,"50","<p style=""font-size:100px""><b>V</b></p><p style=""position: absolute; top: 30px; right: 30px; text-align:right; font-size:50px"""">N = 3</p>","V",0,73,38.4000000059605,1,"agree",14,15,15,14,17,"25","Male","None","Slight Agreement","Slight Disagreement","Slight Agreement","Moderate Agreement","Slight Disagreement","Slight Agreement","Slight Agreement","Moderate Disagreement","Moderate Agreement","Moderate Disagreement","Moderate Agreement","Neither Agreement nor Disagreement","Slight Agreement","Slight Disagreement","Strong Agreement","Moderate Agreement","Moderate Agreement","Slight Agreement"
"118","AL1U6BGXX0WD5:3W92K5RLWVNQ2I84Z2UJAUMZSWE5VN","2",7,10,3,"50","<p style=""font-size:100px""><b>p</b></p><p style=""position: absolute; top: 30px; right: 30px; text-align:right; font-size:50px"""">N = 3</p>","p",0,69,175.29999999702,0,"agree",14,15,15,14,17,"25","Male","None","Slight Agreement","Slight Disagreement","Slight Agreement","Moderate Agreement","Slight Disagreement","Slight Agreement","Slight Agreement","Moderate Disagreement","Moderate Agreement","Moderate Disagreement","Moderate Agreement","Neither Agreement nor Disagreement","Slight Agreement","Slight Disagreement","Strong Agreement","Moderate Agreement","Moderate Agreement","Slight Agreement"
"119","AL1U6BGXX0WD5:3W92K5RLWVNQ2I84Z2UJAUMZSWE5VN","2",7,11,3,"50","<p style=""font-size:100px""><b>G</b></p><p style=""position: absolute; top: 30px; right: 30px; text-align:right; font-size:50px"""">N = 3</p>","G",0,73,28.2000000029802,1,"agree",14,15,15,14,17,"25","Male","None","Slight Agreement","Slight Disagreement","Slight Agreement","Moderate Agreement","Slight Disagreement","Slight Agreement","Slight Agreement","Moderate Disagreement","Moderate Agreement","Moderate Disagreement","Moderate Agreement","Neither Agreement nor Disagreement","Slight Agreement","Slight Disagreement","Strong Agreement","Moderate Agreement","Moderate Agreement","Slight Agreement"
"120","AL1U6BGXX0WD5:3W92K5RLWVNQ2I84Z2UJAUMZSWE5VN","2",7,12,3,"50","<p style=""font-size:100px""><b>V</b></p><p style=""position: absolute; top: 30px; right: 30px; text-align:right; font-size:50px"""">N = 3</p>","V",0,69,205.90000000596,0,"agree",14,15,15,14,17,"25","Male","None","Slight Agreement","Slight Disagreement","Slight Agreement","Moderate Agreement","Slight Disagreement","Slight Agreement","Slight Agreement","Moderate Disagreement","Moderate Agreement","Moderate Disagreement","Moderate Agreement","Neither Agreement nor Disagreement","Slight Agreement","Slight Disagreement","Strong Agreement","Moderate Agreement","Moderate Agreement","Slight Agreement"
"121","AL1U6BGXX0WD5:3W92K5RLWVNQ2I84Z2UJAUMZSWE5VN","2",8,1,2,"50","<p style=""font-size:100px""><b>P</b></p><p style=""position: absolute; top: 30px; right: 30px; text-align:right; font-size:50px"""">N = 2</p>","P",0,69,51.9000000059605,0,"agree",16,15,16,16,16,"25","Male","None","Slight Agreement","Slight Disagreement","Slight Agreement","Moderate Agreement","Slight Disagreement","Slight Agreement","Slight Agreement","Moderate Disagreement","Moderate Agreement","Moderate Disagreement","Moderate Agreement","Neither Agreement nor Disagreement","Slight Agreement","Slight Disagreement","Strong Agreement","Moderate Agreement","Moderate Agreement","Slight Agreement"
"122","AL1U6BGXX0WD5:3W92K5RLWVNQ2I84Z2UJAUMZSWE5VN","2",8,2,2,"50","<p style=""font-size:100px""><b>d</b></p><p style=""position: absolute; top: 30px; right: 30px; text-align:right; font-size:50px"""">N = 2</p>","d",0,73,39.8999999910593,1,"agree",16,15,16,16,16,"25","Male","None","Slight Agreement","Slight Disagreement","Slight Agreement","Moderate Agreement","Slight Disagreement","Slight Agreement","Slight Agreement","Moderate Disagreement","Moderate Agreement","Moderate Disagreement","Moderate Agreement","Neither Agreement nor Disagreement","Slight Agreement","Slight Disagreement","Strong Agreement","Moderate Agreement","Moderate Agreement","Slight Agreement"
"123","AL1U6BGXX0WD5:3W92K5RLWVNQ2I84Z2UJAUMZSWE5VN","2",8,3,2,"50","<p style=""font-size:100px""><b>g</b></p><p style=""position: absolute; top: 30px; right: 30px; text-align:right; font-size:50px"""">N = 2</p>","g",0,69,124,0,"agree",16,15,16,16,16,"25","Male","None","Slight Agreement","Slight Disagreement","Slight Agreement","Moderate Agreement","Slight Disagreement","Slight Agreement","Slight Agreement","Moderate Disagreement","Moderate Agreement","Moderate Disagreement","Moderate Agreement","Neither Agreement nor Disagreement","Slight Agreement","Slight Disagreement","Strong Agreement","Moderate Agreement","Moderate Agreement","Slight Agreement"
"124","AL1U6BGXX0WD5:3W92K5RLWVNQ2I84Z2UJAUMZSWE5VN","2",8,4,2,"50","<p style=""font-size:100px""><b>V</b></p><p style=""position: absolute; top: 30px; right: 30px; text-align:right; font-size:50px"""">N = 2</p>","V",0,69,327,0,"agree",16,15,16,16,16,"25","Male","None","Slight Agreement","Slight Disagreement","Slight Agreement","Moderate Agreement","Slight Disagreement","Slight Agreement","Slight Agreement","Moderate Disagreement","Moderate Agreement","Moderate Disagreement","Moderate Agreement","Neither Agreement nor Disagreement","Slight Agreement","Slight Disagreement","Strong Agreement","Moderate Agreement","Moderate Agreement","Slight Agreement"
"125","AL1U6BGXX0WD5:3W92K5RLWVNQ2I84Z2UJAUMZSWE5VN","2",8,5,2,"50","<p style=""font-size:100px""><b>g</b></p><p style=""position: absolute; top: 30px; right: 30px; text-align:right; font-size:50px"""">N = 2</p>","g",0,73,16.9000000059605,1,"agree",16,15,16,16,16,"25","Male","None","Slight Agreement","Slight Disagreement","Slight Agreement","Moderate Agreement","Slight Disagreement","Slight Agreement","Slight Agreement","Moderate Disagreement","Moderate Agreement","Moderate Disagreement","Moderate Agreement","Neither Agreement nor Disagreement","Slight Agreement","Slight Disagreement","Strong Agreement","Moderate Agreement","Moderate Agreement","Slight Agreement"
"126","AL1U6BGXX0WD5:3W92K5RLWVNQ2I84Z2UJAUMZSWE5VN","2",8,6,2,"50","<p style=""font-size:100px""><b>D</b></p><p style=""position: absolute; top: 30px; right: 30px; text-align:right; font-size:50px"""">N = 2</p>","D",0,69,9.40000000596046,0,"agree",16,15,16,16,16,"25","Male","None","Slight Agreement","Slight Disagreement","Slight Agreement","Moderate Agreement","Slight Disagreement","Slight Agreement","Slight Agreement","Moderate Disagreement","Moderate Agreement","Moderate Disagreement","Moderate Agreement","Neither Agreement nor Disagreement","Slight Agreement","Slight Disagreement","Strong Agreement","Moderate Agreement","Moderate Agreement","Slight Agreement"
"127","AL1U6BGXX0WD5:3W92K5RLWVNQ2I84Z2UJAUMZSWE5VN","2",8,7,2,"50","<p style=""font-size:100px""><b>g</b></p><p style=""position: absolute; top: 30px; right: 30px; text-align:right; font-size:50px"""">N = 2</p>","g",0,73,0.5,1,"agree",16,15,16,16,16,"25","Male","None","Slight Agreement","Slight Disagreement","Slight Agreement","Moderate Agreement","Slight Disagreement","Slight Agreement","Slight Agreement","Moderate Disagreement","Moderate Agreement","Moderate Disagreement","Moderate Agreement","Neither Agreement nor Disagreement","Slight Agreement","Slight Disagreement","Strong Agreement","Moderate Agreement","Moderate Agreement","Slight Agreement"
"128","AL1U6BGXX0WD5:3W92K5RLWVNQ2I84Z2UJAUMZSWE5VN","2",8,8,2,"50","<p style=""font-size:100px""><b>D</b></p><p style=""position: absolute; top: 30px; right: 30px; text-align:right; font-size:50px"""">N = 2</p>","D",0,69,117.20000000298,0,"agree",16,15,16,16,16,"25","Male","None","Slight Agreement","Slight Disagreement","Slight Agreement","Moderate Agreement","Slight Disagreement","Slight Agreement","Slight Agreement","Moderate Disagreement","Moderate Agreement","Moderate Disagreement","Moderate Agreement","Neither Agreement nor Disagreement","Slight Agreement","Slight Disagreement","Strong Agreement","Moderate Agreement","Moderate Agreement","Slight Agreement"
"129","AL1U6BGXX0WD5:3W92K5RLWVNQ2I84Z2UJAUMZSWE5VN","2",8,9,2,"50","<p style=""font-size:100px""><b>V</b></p><p style=""position: absolute; top: 30px; right: 30px; text-align:right; font-size:50px"""">N = 2</p>","V",0,69,24.1000000089407,0,"agree",16,15,16,16,16,"25","Male","None","Slight Agreement","Slight Disagreement","Slight Agreement","Moderate Agreement","Slight Disagreement","Slight Agreement","Slight Agreement","Moderate Disagreement","Moderate Agreement","Moderate Disagreement","Moderate Agreement","Neither Agreement nor Disagreement","Slight Agreement","Slight Disagreement","Strong Agreement","Moderate Agreement","Moderate Agreement","Slight Agreement"
"130","AL1U6BGXX0WD5:3W92K5RLWVNQ2I84Z2UJAUMZSWE5VN","2",8,10,2,"50","<p style=""font-size:100px""><b>D</b></p><p style=""position: absolute; top: 30px; right: 30px; text-align:right; font-size:50px"""">N = 2</p>","D",0,69,40.2000000029802,0,"agree",16,15,16,16,16,"25","Male","None","Slight Agreement","Slight Disagreement","Slight Agreement","Moderate Agreement","Slight Disagreement","Slight Agreement","Slight Agreement","Moderate Disagreement","Moderate Agreement","Moderate Disagreement","Moderate Agreement","Neither Agreement nor Disagreement","Slight Agreement","Slight Disagreement","Strong Agreement","Moderate Agreement","Moderate Agreement","Slight Agreement"
"131","AL1U6BGXX0WD5:3W92K5RLWVNQ2I84Z2UJAUMZSWE5VN","2",8,11,2,"50","<p style=""font-size:100px""><b>P</b></p><p style=""position: absolute; top: 30px; right: 30px; text-align:right; font-size:50px"""">N = 2</p>","P",0,69,1.40000000596046,0,"agree",16,15,16,16,16,"25","Male","None","Slight Agreement","Slight Disagreement","Slight Agreement","Moderate Agreement","Slight Disagreement","Slight Agreement","Slight Agreement","Moderate Disagreement","Moderate Agreement","Moderate Disagreement","Moderate Agreement","Neither Agreement nor Disagreement","Slight Agreement","Slight Disagreement","Strong Agreement","Moderate Agreement","Moderate Agreement","Slight Agreement"
"132","AL1U6BGXX0WD5:3W92K5RLWVNQ2I84Z2UJAUMZSWE5VN","2",8,12,2,"50","<p style=""font-size:100px""><b>B</b></p><p style=""position: absolute; top: 30px; right: 30px; text-align:right; font-size:50px"""">N = 2</p>","B",0,73,0.0999999940395355,1,"agree",16,15,16,16,16,"25","Male","None","Slight Agreement","Slight Disagreement","Slight Agreement","Moderate Agreement","Slight Disagreement","Slight Agreement","Slight Agreement","Moderate Disagreement","Moderate Agreement","Moderate Disagreement","Moderate Agreement","Neither Agreement nor Disagreement","Slight Agreement","Slight Disagreement","Strong Agreement","Moderate Agreement","Moderate Agreement","Slight Agreement"
"133","AL1U6BGXX0WD5:3W92K5RLWVNQ2I84Z2UJAUMZSWE5VN","2",9,1,1,"50","<p style=""font-size:100px""><b>D</b></p><p style=""position: absolute; top: 30px; right: 30px; text-align:right; font-size:50px"""">N = 1</p>","D",0,NA,NA,0,"agree",16,16,15,14,15,"25","Male","None","Slight Agreement","Slight Disagreement","Slight Agreement","Moderate Agreement","Slight Disagreement","Slight Agreement","Slight Agreement","Moderate Disagreement","Moderate Agreement","Moderate Disagreement","Moderate Agreement","Neither Agreement nor Disagreement","Slight Agreement","Slight Disagreement","Strong Agreement","Moderate Agreement","Moderate Agreement","Slight Agreement"
"134","AL1U6BGXX0WD5:3W92K5RLWVNQ2I84Z2UJAUMZSWE5VN","2",9,2,1,"50","<p style=""font-size:100px""><b>D</b></p><p style=""position: absolute; top: 30px; right: 30px; text-align:right; font-size:50px"""">N = 1</p>","D",0,69,118.29999999702,0,"agree",16,16,15,14,15,"25","Male","None","Slight Agreement","Slight Disagreement","Slight Agreement","Moderate Agreement","Slight Disagreement","Slight Agreement","Slight Agreement","Moderate Disagreement","Moderate Agreement","Moderate Disagreement","Moderate Agreement","Neither Agreement nor Disagreement","Slight Agreement","Slight Disagreement","Strong Agreement","Moderate Agreement","Moderate Agreement","Slight Agreement"
"135","AL1U6BGXX0WD5:3W92K5RLWVNQ2I84Z2UJAUMZSWE5VN","2",9,3,1,"50","<p style=""font-size:100px""><b>v</b></p><p style=""position: absolute; top: 30px; right: 30px; text-align:right; font-size:50px"""">N = 1</p>","v",0,69,7.1000000089407,0,"agree",16,16,15,14,15,"25","Male","None","Slight Agreement","Slight Disagreement","Slight Agreement","Moderate Agreement","Slight Disagreement","Slight Agreement","Slight Agreement","Moderate Disagreement","Moderate Agreement","Moderate Disagreement","Moderate Agreement","Neither Agreement nor Disagreement","Slight Agreement","Slight Disagreement","Strong Agreement","Moderate Agreement","Moderate Agreement","Slight Agreement"
"136","AL1U6BGXX0WD5:3W92K5RLWVNQ2I84Z2UJAUMZSWE5VN","2",9,4,1,"50","<p style=""font-size:100px""><b>G</b></p><p style=""position: absolute; top: 30px; right: 30px; text-align:right; font-size:50px"""">N = 1</p>","G",0,73,0.699999988079071,1,"agree",16,16,15,14,15,"25","Male","None","Slight Agreement","Slight Disagreement","Slight Agreement","Moderate Agreement","Slight Disagreement","Slight Agreement","Slight Agreement","Moderate Disagreement","Moderate Agreement","Moderate Disagreement","Moderate Agreement","Neither Agreement nor Disagreement","Slight Agreement","Slight Disagreement","Strong Agreement","Moderate Agreement","Moderate Agreement","Slight Agreement"
"137","AL1U6BGXX0WD5:3W92K5RLWVNQ2I84Z2UJAUMZSWE5VN","2",9,5,1,"50","<p style=""font-size:100px""><b>b</b></p><p style=""position: absolute; top: 30px; right: 30px; text-align:right; font-size:50px"""">N = 1</p>","b",0,73,33.7999999970198,1,"agree",16,16,15,14,15,"25","Male","None","Slight Agreement","Slight Disagreement","Slight Agreement","Moderate Agreement","Slight Disagreement","Slight Agreement","Slight Agreement","Moderate Disagreement","Moderate Agreement","Moderate Disagreement","Moderate Agreement","Neither Agreement nor Disagreement","Slight Agreement","Slight Disagreement","Strong Agreement","Moderate Agreement","Moderate Agreement","Slight Agreement"
"138","AL1U6BGXX0WD5:3W92K5RLWVNQ2I84Z2UJAUMZSWE5VN","2",9,6,1,"50","<p style=""font-size:100px""><b>b</b></p><p style=""position: absolute; top: 30px; right: 30px; text-align:right; font-size:50px"""">N = 1</p>","b",0,73,83.7999999970198,1,"agree",16,16,15,14,15,"25","Male","None","Slight Agreement","Slight Disagreement","Slight Agreement","Moderate Agreement","Slight Disagreement","Slight Agreement","Slight Agreement","Moderate Disagreement","Moderate Agreement","Moderate Disagreement","Moderate Agreement","Neither Agreement nor Disagreement","Slight Agreement","Slight Disagreement","Strong Agreement","Moderate Agreement","Moderate Agreement","Slight Agreement"
"139","AL1U6BGXX0WD5:3W92K5RLWVNQ2I84Z2UJAUMZSWE5VN","2",9,7,1,"50","<p style=""font-size:100px""><b>b</b></p><p style=""position: absolute; top: 30px; right: 30px; text-align:right; font-size:50px"""">N = 1</p>","b",0,73,312.20000000298,1,"agree",16,16,15,14,15,"25","Male","None","Slight Agreement","Slight Disagreement","Slight Agreement","Moderate Agreement","Slight Disagreement","Slight Agreement","Slight Agreement","Moderate Disagreement","Moderate Agreement","Moderate Disagreement","Moderate Agreement","Neither Agreement nor Disagreement","Slight Agreement","Slight Disagreement","Strong Agreement","Moderate Agreement","Moderate Agreement","Slight Agreement"
"140","AL1U6BGXX0WD5:3W92K5RLWVNQ2I84Z2UJAUMZSWE5VN","2",9,8,1,"50","<p style=""font-size:100px""><b>b</b></p><p style=""position: absolute; top: 30px; right: 30px; text-align:right; font-size:50px"""">N = 1</p>","b",0,73,27.0999999940395,1,"agree",16,16,15,14,15,"25","Male","None","Slight Agreement","Slight Disagreement","Slight Agreement","Moderate Agreement","Slight Disagreement","Slight Agreement","Slight Agreement","Moderate Disagreement","Moderate Agreement","Moderate Disagreement","Moderate Agreement","Neither Agreement nor Disagreement","Slight Agreement","Slight Disagreement","Strong Agreement","Moderate Agreement","Moderate Agreement","Slight Agreement"
"141","AL1U6BGXX0WD5:3W92K5RLWVNQ2I84Z2UJAUMZSWE5VN","2",9,9,1,"50","<p style=""font-size:100px""><b>G</b></p><p style=""position: absolute; top: 30px; right: 30px; text-align:right; font-size:50px"""">N = 1</p>","G",0,73,42.5999999940395,1,"agree",16,16,15,14,15,"25","Male","None","Slight Agreement","Slight Disagreement","Slight Agreement","Moderate Agreement","Slight Disagreement","Slight Agreement","Slight Agreement","Moderate Disagreement","Moderate Agreement","Moderate Disagreement","Moderate Agreement","Neither Agreement nor Disagreement","Slight Agreement","Slight Disagreement","Strong Agreement","Moderate Agreement","Moderate Agreement","Slight Agreement"
"142","AL1U6BGXX0WD5:3W92K5RLWVNQ2I84Z2UJAUMZSWE5VN","2",9,10,1,"50","<p style=""font-size:100px""><b>v</b></p><p style=""position: absolute; top: 30px; right: 30px; text-align:right; font-size:50px"""">N = 1</p>","v",0,73,17.2000000029802,1,"agree",16,16,15,14,15,"25","Male","None","Slight Agreement","Slight Disagreement","Slight Agreement","Moderate Agreement","Slight Disagreement","Slight Agreement","Slight Agreement","Moderate Disagreement","Moderate Agreement","Moderate Disagreement","Moderate Agreement","Neither Agreement nor Disagreement","Slight Agreement","Slight Disagreement","Strong Agreement","Moderate Agreement","Moderate Agreement","Slight Agreement"
"143","AL1U6BGXX0WD5:3W92K5RLWVNQ2I84Z2UJAUMZSWE5VN","2",9,11,1,"50","<p style=""font-size:100px""><b>t</b></p><p style=""position: absolute; top: 30px; right: 30px; text-align:right; font-size:50px"""">N = 1</p>","t",0,73,26.2000000029802,1,"agree",16,16,15,14,15,"25","Male","None","Slight Agreement","Slight Disagreement","Slight Agreement","Moderate Agreement","Slight Disagreement","Slight Agreement","Slight Agreement","Moderate Disagreement","Moderate Agreement","Moderate Disagreement","Moderate Agreement","Neither Agreement nor Disagreement","Slight Agreement","Slight Disagreement","Strong Agreement","Moderate Agreement","Moderate Agreement","Slight Agreement"
"144","AL1U6BGXX0WD5:3W92K5RLWVNQ2I84Z2UJAUMZSWE5VN","2",9,12,1,"50","<p style=""font-size:100px""><b>G</b></p><p style=""position: absolute; top: 30px; right: 30px; text-align:right; font-size:50px"""">N = 1</p>","G",0,69,15.2999999970198,0,"agree",16,16,15,14,15,"25","Male","None","Slight Agreement","Slight Disagreement","Slight Agreement","Moderate Agreement","Slight Disagreement","Slight Agreement","Slight Agreement","Moderate Disagreement","Moderate Agreement","Moderate Disagreement","Moderate Agreement","Neither Agreement nor Disagreement","Slight Agreement","Slight Disagreement","Strong Agreement","Moderate Agreement","Moderate Agreement","Slight Agreement"
"145","AL1U6BGXX0WD5:3W92K5RLWVNQ2I84Z2UJAUMZSWE5VN","2",10,1,3,"5","<p style=""font-size:100px""><b>P</b></p><p style=""position: absolute; top: 30px; right: 30px; text-align:right; font-size:50px"""">N = 3</p>","P",0,NA,NA,0,"agree",14,17,14,17,15,"25","Male","None","Slight Agreement","Slight Disagreement","Slight Agreement","Moderate Agreement","Slight Disagreement","Slight Agreement","Slight Agreement","Moderate Disagreement","Moderate Agreement","Moderate Disagreement","Moderate Agreement","Neither Agreement nor Disagreement","Slight Agreement","Slight Disagreement","Strong Agreement","Moderate Agreement","Moderate Agreement","Slight Agreement"
"146","AL1U6BGXX0WD5:3W92K5RLWVNQ2I84Z2UJAUMZSWE5VN","2",10,2,3,"5","<p style=""font-size:100px""><b>B</b></p><p style=""position: absolute; top: 30px; right: 30px; text-align:right; font-size:50px"""">N = 3</p>","B",0,NA,NA,0,"agree",14,17,14,17,15,"25","Male","None","Slight Agreement","Slight Disagreement","Slight Agreement","Moderate Agreement","Slight Disagreement","Slight Agreement","Slight Agreement","Moderate Disagreement","Moderate Agreement","Moderate Disagreement","Moderate Agreement","Neither Agreement nor Disagreement","Slight Agreement","Slight Disagreement","Strong Agreement","Moderate Agreement","Moderate Agreement","Slight Agreement"
"147","AL1U6BGXX0WD5:3W92K5RLWVNQ2I84Z2UJAUMZSWE5VN","2",10,3,3,"5","<p style=""font-size:100px""><b>g</b></p><p style=""position: absolute; top: 30px; right: 30px; text-align:right; font-size:50px"""">N = 3</p>","g",0,69,22.5999999940395,0,"agree",14,17,14,17,15,"25","Male","None","Slight Agreement","Slight Disagreement","Slight Agreement","Moderate Agreement","Slight Disagreement","Slight Agreement","Slight Agreement","Moderate Disagreement","Moderate Agreement","Moderate Disagreement","Moderate Agreement","Neither Agreement nor Disagreement","Slight Agreement","Slight Disagreement","Strong Agreement","Moderate Agreement","Moderate Agreement","Slight Agreement"
"148","AL1U6BGXX0WD5:3W92K5RLWVNQ2I84Z2UJAUMZSWE5VN","2",10,4,3,"5","<p style=""font-size:100px""><b>P</b></p><p style=""position: absolute; top: 30px; right: 30px; text-align:right; font-size:50px"""">N = 3</p>","P",0,73,30.9000000059605,1,"agree",14,17,14,17,15,"25","Male","None","Slight Agreement","Slight Disagreement","Slight Agreement","Moderate Agreement","Slight Disagreement","Slight Agreement","Slight Agreement","Moderate Disagreement","Moderate Agreement","Moderate Disagreement","Moderate Agreement","Neither Agreement nor Disagreement","Slight Agreement","Slight Disagreement","Strong Agreement","Moderate Agreement","Moderate Agreement","Slight Agreement"
