"","subject","run","block","trial","N","reward","stimulus","cue","isTarget","key_press","rt","acc","debrief","performance","frustration","demand","temporal","effort","age","gender","comments","nfc1","nfc2","nfc3","nfc4","nfc5","nfc6","nfc7","nfc8","nfc9","nfc10","nfc11","nfc12","nfc13","nfc14","nfc15","nfc16","nfc17","nfc18"
"1","A4FV7I32EYWZ7:3EJPLAJKENM3U6DS5ITRN6DVC8YZ6C","practice",1,1,1,"NA","<p style=""font-size:100px""><b>D</b></p><p style=""position: absolute; top: 30px; right: 30px; text-align:right; font-size:50px"""">N = 1</p>","D",0,73,4455,1,"agree",8,15,13,17,15,"39","Female","Good and Quite interesting one","Strong Agreement","Strong Agreement","Strong Agreement","Moderate Agreement","Slight Agreement","Slight Disagreement","Very Strong Agreement","Neither Agreement nor Disagreement","Very Strong Agreement","Moderate Agreement","Very Strong Agreement","Very Strong Disagreement","Very Strong Agreement","Neither Agreement nor Disagreement","Moderate Agreement","Strong Agreement","Slight Disagreement","Neither Agreement nor Disagreement"
"2","A4FV7I32EYWZ7:3EJPLAJKENM3U6DS5ITRN6DVC8YZ6C","practice",1,2,1,"NA","<p style=""font-size:100px""><b>g</b></p><p style=""position: absolute; top: 30px; right: 30px; text-align:right; font-size:50px"""">N = 1</p>","g",0,73,1426,1,"agree",8,15,13,17,15,"39","Female","Good and Quite interesting one","Strong Agreement","Strong Agreement","Strong Agreement","Moderate Agreement","Slight Agreement","Slight Disagreement","Very Strong Agreement","Neither Agreement nor Disagreement","Very Strong Agreement","Moderate Agreement","Very Strong Agreement","Very Strong Disagreement","Very Strong Agreement","Neither Agreement nor Disagreement","Moderate Agreement","Strong Agreement","Slight Disagreement","Neither Agreement nor Disagreement"
"3","A4FV7I32EYWZ7:3EJPLAJKENM3U6DS5ITRN6DVC8YZ6C","practice",1,3,1,"NA","<p style=""font-size:100px""><b>T</b></p><p style=""position: absolute; top: 30px; right: 30px; text-align:right; font-size:50px"""">N = 1</p>","T",0,73,1066,1,"agree",8,15,13,17,15,"39","Female","Good and Quite interesting one","Strong Agreement","Strong Agreement","Strong Agreement","Moderate Agreement","Slight Agreement","Slight Disagreement","Very Strong Agreement","Neither Agreement nor Disagreement","Very Strong Agreement","Moderate Agreement","Very Strong Agreement","Very Strong Disagreement","Very Strong Agreement","Neither Agreement nor Disagreement","Moderate Agreement","Strong Agreement","Slight Disagreement","Neither Agreement nor Disagreement"
"4","A4FV7I32EYWZ7:3EJPLAJKENM3U6DS5ITRN6DVC8YZ6C","practice",1,4,1,"NA","<p style=""font-size:100px""><b>T</b></p><p style=""position: absolute; top: 30px; right: 30px; text-align:right; font-size:50px"""">N = 1</p>","T",1,69,1533,1,"agree",8,15,13,17,15,"39","Female","Good and Quite interesting one","Strong Agreement","Strong Agreement","Strong Agreement","Moderate Agreement","Slight Agreement","Slight Disagreement","Very Strong Agreement","Neither Agreement nor Disagreement","Very Strong Agreement","Moderate Agreement","Very Strong Agreement","Very Strong Disagreement","Very Strong Agreement","Neither Agreement nor Disagreement","Moderate Agreement","Strong Agreement","Slight Disagreement","Neither Agreement nor Disagreement"
"5","A4FV7I32EYWZ7:3EJPLAJKENM3U6DS5ITRN6DVC8YZ6C","practice",1,5,1,"NA","<p style=""font-size:100px""><b>T</b></p><p style=""position: absolute; top: 30px; right: 30px; text-align:right; font-size:50px"""">N = 1</p>","T",1,69,6747,1,"agree",8,15,13,17,15,"39","Female","Good and Quite interesting one","Strong Agreement","Strong Agreement","Strong Agreement","Moderate Agreement","Slight Agreement","Slight Disagreement","Very Strong Agreement","Neither Agreement nor Disagreement","Very Strong Agreement","Moderate Agreement","Very Strong Agreement","Very Strong Disagreement","Very Strong Agreement","Neither Agreement nor Disagreement","Moderate Agreement","Strong Agreement","Slight Disagreement","Neither Agreement nor Disagreement"
"6","A4FV7I32EYWZ7:3EJPLAJKENM3U6DS5ITRN6DVC8YZ6C","practice",1,6,1,"NA","<p style=""font-size:100px""><b>g</b></p><p style=""position: absolute; top: 30px; right: 30px; text-align:right; font-size:50px"""">N = 1</p>","g",0,69,1350,0,"agree",8,15,13,17,15,"39","Female","Good and Quite interesting one","Strong Agreement","Strong Agreement","Strong Agreement","Moderate Agreement","Slight Agreement","Slight Disagreement","Very Strong Agreement","Neither Agreement nor Disagreement","Very Strong Agreement","Moderate Agreement","Very Strong Agreement","Very Strong Disagreement","Very Strong Agreement","Neither Agreement nor Disagreement","Moderate Agreement","Strong Agreement","Slight Disagreement","Neither Agreement nor Disagreement"
"7","A4FV7I32EYWZ7:3EJPLAJKENM3U6DS5ITRN6DVC8YZ6C","practice",1,7,1,"NA","<p style=""font-size:100px""><b>g</b></p><p style=""position: absolute; top: 30px; right: 30px; text-align:right; font-size:50px"""">N = 1</p>","g",1,69,1388,1,"agree",8,15,13,17,15,"39","Female","Good and Quite interesting one","Strong Agreement","Strong Agreement","Strong Agreement","Moderate Agreement","Slight Agreement","Slight Disagreement","Very Strong Agreement","Neither Agreement nor Disagreement","Very Strong Agreement","Moderate Agreement","Very Strong Agreement","Very Strong Disagreement","Very Strong Agreement","Neither Agreement nor Disagreement","Moderate Agreement","Strong Agreement","Slight Disagreement","Neither Agreement nor Disagreement"
"8","A4FV7I32EYWZ7:3EJPLAJKENM3U6DS5ITRN6DVC8YZ6C","practice",1,8,1,"NA","<p style=""font-size:100px""><b>g</b></p><p style=""position: absolute; top: 30px; right: 30px; text-align:right; font-size:50px"""">N = 1</p>","g",1,69,863,1,"agree",8,15,13,17,15,"39","Female","Good and Quite interesting one","Strong Agreement","Strong Agreement","Strong Agreement","Moderate Agreement","Slight Agreement","Slight Disagreement","Very Strong Agreement","Neither Agreement nor Disagreement","Very Strong Agreement","Moderate Agreement","Very Strong Agreement","Very Strong Disagreement","Very Strong Agreement","Neither Agreement nor Disagreement","Moderate Agreement","Strong Agreement","Slight Disagreement","Neither Agreement nor Disagreement"
"9","A4FV7I32EYWZ7:3EJPLAJKENM3U6DS5ITRN6DVC8YZ6C","practice",1,9,1,"NA","<p style=""font-size:100px""><b>V</b></p><p style=""position: absolute; top: 30px; right: 30px; text-align:right; font-size:50px"""">N = 1</p>","V",0,73,969,1,"agree",8,15,13,17,15,"39","Female","Good and Quite interesting one","Strong Agreement","Strong Agreement","Strong Agreement","Moderate Agreement","Slight Agreement","Slight Disagreement","Very Strong Agreement","Neither Agreement nor Disagreement","Very Strong Agreement","Moderate Agreement","Very Strong Agreement","Very Strong Disagreement","Very Strong Agreement","Neither Agreement nor Disagreement","Moderate Agreement","Strong Agreement","Slight Disagreement","Neither Agreement nor Disagreement"
"10","A4FV7I32EYWZ7:3EJPLAJKENM3U6DS5ITRN6DVC8YZ6C","practice",1,10,1,"NA","<p style=""font-size:100px""><b>T</b></p><p style=""position: absolute; top: 30px; right: 30px; text-align:right; font-size:50px"""">N = 1</p>","T",0,69,895,0,"agree",8,15,13,17,15,"39","Female","Good and Quite interesting one","Strong Agreement","Strong Agreement","Strong Agreement","Moderate Agreement","Slight Agreement","Slight Disagreement","Very Strong Agreement","Neither Agreement nor Disagreement","Very Strong Agreement","Moderate Agreement","Very Strong Agreement","Very Strong Disagreement","Very Strong Agreement","Neither Agreement nor Disagreement","Moderate Agreement","Strong Agreement","Slight Disagreement","Neither Agreement nor Disagreement"
"11","A4FV7I32EYWZ7:3EJPLAJKENM3U6DS5ITRN6DVC8YZ6C","practice",1,11,1,"NA","<p style=""font-size:100px""><b>V</b></p><p style=""position: absolute; top: 30px; right: 30px; text-align:right; font-size:50px"""">N = 1</p>","V",0,69,1514,0,"agree",8,15,13,17,15,"39","Female","Good and Quite interesting one","Strong Agreement","Strong Agreement","Strong Agreement","Moderate Agreement","Slight Agreement","Slight Disagreement","Very Strong Agreement","Neither Agreement nor Disagreement","Very Strong Agreement","Moderate Agreement","Very Strong Agreement","Very Strong Disagreement","Very Strong Agreement","Neither Agreement nor Disagreement","Moderate Agreement","Strong Agreement","Slight Disagreement","Neither Agreement nor Disagreement"
"12","A4FV7I32EYWZ7:3EJPLAJKENM3U6DS5ITRN6DVC8YZ6C","practice",1,12,1,"NA","<p style=""font-size:100px""><b>T</b></p><p style=""position: absolute; top: 30px; right: 30px; text-align:right; font-size:50px"""">N = 1</p>","T",0,73,1656,1,"agree",8,15,13,17,15,"39","Female","Good and Quite interesting one","Strong Agreement","Strong Agreement","Strong Agreement","Moderate Agreement","Slight Agreement","Slight Disagreement","Very Strong Agreement","Neither Agreement nor Disagreement","Very Strong Agreement","Moderate Agreement","Very Strong Agreement","Very Strong Disagreement","Very Strong Agreement","Neither Agreement nor Disagreement","Moderate Agreement","Strong Agreement","Slight Disagreement","Neither Agreement nor Disagreement"
"13","A4FV7I32EYWZ7:3EJPLAJKENM3U6DS5ITRN6DVC8YZ6C","practice",2,1,2,"NA","<p style=""font-size:100px""><b>T</b></p><p style=""position: absolute; top: 30px; right: 30px; text-align:right; font-size:50px"""">N = 2</p>","T",0,73,2289,1,"agree",8,15,13,17,15,"39","Female","Good and Quite interesting one","Strong Agreement","Strong Agreement","Strong Agreement","Moderate Agreement","Slight Agreement","Slight Disagreement","Very Strong Agreement","Neither Agreement nor Disagreement","Very Strong Agreement","Moderate Agreement","Very Strong Agreement","Very Strong Disagreement","Very Strong Agreement","Neither Agreement nor Disagreement","Moderate Agreement","Strong Agreement","Slight Disagreement","Neither Agreement nor Disagreement"
"14","A4FV7I32EYWZ7:3EJPLAJKENM3U6DS5ITRN6DVC8YZ6C","practice",2,2,2,"NA","<p style=""font-size:100px""><b>v</b></p><p style=""position: absolute; top: 30px; right: 30px; text-align:right; font-size:50px"""">N = 2</p>","v",0,73,1241,1,"agree",8,15,13,17,15,"39","Female","Good and Quite interesting one","Strong Agreement","Strong Agreement","Strong Agreement","Moderate Agreement","Slight Agreement","Slight Disagreement","Very Strong Agreement","Neither Agreement nor Disagreement","Very Strong Agreement","Moderate Agreement","Very Strong Agreement","Very Strong Disagreement","Very Strong Agreement","Neither Agreement nor Disagreement","Moderate Agreement","Strong Agreement","Slight Disagreement","Neither Agreement nor Disagreement"
"15","A4FV7I32EYWZ7:3EJPLAJKENM3U6DS5ITRN6DVC8YZ6C","practice",2,3,2,"NA","<p style=""font-size:100px""><b>p</b></p><p style=""position: absolute; top: 30px; right: 30px; text-align:right; font-size:50px"""">N = 2</p>","p",0,73,1268,1,"agree",8,15,13,17,15,"39","Female","Good and Quite interesting one","Strong Agreement","Strong Agreement","Strong Agreement","Moderate Agreement","Slight Agreement","Slight Disagreement","Very Strong Agreement","Neither Agreement nor Disagreement","Very Strong Agreement","Moderate Agreement","Very Strong Agreement","Very Strong Disagreement","Very Strong Agreement","Neither Agreement nor Disagreement","Moderate Agreement","Strong Agreement","Slight Disagreement","Neither Agreement nor Disagreement"
"16","A4FV7I32EYWZ7:3EJPLAJKENM3U6DS5ITRN6DVC8YZ6C","practice",2,4,2,"NA","<p style=""font-size:100px""><b>v</b></p><p style=""position: absolute; top: 30px; right: 30px; text-align:right; font-size:50px"""">N = 2</p>","v",1,69,1387,1,"agree",8,15,13,17,15,"39","Female","Good and Quite interesting one","Strong Agreement","Strong Agreement","Strong Agreement","Moderate Agreement","Slight Agreement","Slight Disagreement","Very Strong Agreement","Neither Agreement nor Disagreement","Very Strong Agreement","Moderate Agreement","Very Strong Agreement","Very Strong Disagreement","Very Strong Agreement","Neither Agreement nor Disagreement","Moderate Agreement","Strong Agreement","Slight Disagreement","Neither Agreement nor Disagreement"
"17","A4FV7I32EYWZ7:3EJPLAJKENM3U6DS5ITRN6DVC8YZ6C","practice",2,5,2,"NA","<p style=""font-size:100px""><b>g</b></p><p style=""position: absolute; top: 30px; right: 30px; text-align:right; font-size:50px"""">N = 2</p>","g",0,73,1149,1,"agree",8,15,13,17,15,"39","Female","Good and Quite interesting one","Strong Agreement","Strong Agreement","Strong Agreement","Moderate Agreement","Slight Agreement","Slight Disagreement","Very Strong Agreement","Neither Agreement nor Disagreement","Very Strong Agreement","Moderate Agreement","Very Strong Agreement","Very Strong Disagreement","Very Strong Agreement","Neither Agreement nor Disagreement","Moderate Agreement","Strong Agreement","Slight Disagreement","Neither Agreement nor Disagreement"
"18","A4FV7I32EYWZ7:3EJPLAJKENM3U6DS5ITRN6DVC8YZ6C","practice",2,6,2,"NA","<p style=""font-size:100px""><b>P</b></p><p style=""position: absolute; top: 30px; right: 30px; text-align:right; font-size:50px"""">N = 2</p>","P",0,69,1323,0,"agree",8,15,13,17,15,"39","Female","Good and Quite interesting one","Strong Agreement","Strong Agreement","Strong Agreement","Moderate Agreement","Slight Agreement","Slight Disagreement","Very Strong Agreement","Neither Agreement nor Disagreement","Very Strong Agreement","Moderate Agreement","Very Strong Agreement","Very Strong Disagreement","Very Strong Agreement","Neither Agreement nor Disagreement","Moderate Agreement","Strong Agreement","Slight Disagreement","Neither Agreement nor Disagreement"
"19","A4FV7I32EYWZ7:3EJPLAJKENM3U6DS5ITRN6DVC8YZ6C","practice",2,7,2,"NA","<p style=""font-size:100px""><b>p</b></p><p style=""position: absolute; top: 30px; right: 30px; text-align:right; font-size:50px"""">N = 2</p>","p",0,69,1628,0,"agree",8,15,13,17,15,"39","Female","Good and Quite interesting one","Strong Agreement","Strong Agreement","Strong Agreement","Moderate Agreement","Slight Agreement","Slight Disagreement","Very Strong Agreement","Neither Agreement nor Disagreement","Very Strong Agreement","Moderate Agreement","Very Strong Agreement","Very Strong Disagreement","Very Strong Agreement","Neither Agreement nor Disagreement","Moderate Agreement","Strong Agreement","Slight Disagreement","Neither Agreement nor Disagreement"
"20","A4FV7I32EYWZ7:3EJPLAJKENM3U6DS5ITRN6DVC8YZ6C","practice",2,8,2,"NA","<p style=""font-size:100px""><b>P</b></p><p style=""position: absolute; top: 30px; right: 30px; text-align:right; font-size:50px"""">N = 2</p>","P",1,69,995,1,"agree",8,15,13,17,15,"39","Female","Good and Quite interesting one","Strong Agreement","Strong Agreement","Strong Agreement","Moderate Agreement","Slight Agreement","Slight Disagreement","Very Strong Agreement","Neither Agreement nor Disagreement","Very Strong Agreement","Moderate Agreement","Very Strong Agreement","Very Strong Disagreement","Very Strong Agreement","Neither Agreement nor Disagreement","Moderate Agreement","Strong Agreement","Slight Disagreement","Neither Agreement nor Disagreement"
"21","A4FV7I32EYWZ7:3EJPLAJKENM3U6DS5ITRN6DVC8YZ6C","practice",2,9,2,"NA","<p style=""font-size:100px""><b>p</b></p><p style=""position: absolute; top: 30px; right: 30px; text-align:right; font-size:50px"""">N = 2</p>","p",1,69,1079,1,"agree",8,15,13,17,15,"39","Female","Good and Quite interesting one","Strong Agreement","Strong Agreement","Strong Agreement","Moderate Agreement","Slight Agreement","Slight Disagreement","Very Strong Agreement","Neither Agreement nor Disagreement","Very Strong Agreement","Moderate Agreement","Very Strong Agreement","Very Strong Disagreement","Very Strong Agreement","Neither Agreement nor Disagreement","Moderate Agreement","Strong Agreement","Slight Disagreement","Neither Agreement nor Disagreement"
"22","A4FV7I32EYWZ7:3EJPLAJKENM3U6DS5ITRN6DVC8YZ6C","practice",2,10,2,"NA","<p style=""font-size:100px""><b>b</b></p><p style=""position: absolute; top: 30px; right: 30px; text-align:right; font-size:50px"""">N = 2</p>","b",0,73,1094,1,"agree",8,15,13,17,15,"39","Female","Good and Quite interesting one","Strong Agreement","Strong Agreement","Strong Agreement","Moderate Agreement","Slight Agreement","Slight Disagreement","Very Strong Agreement","Neither Agreement nor Disagreement","Very Strong Agreement","Moderate Agreement","Very Strong Agreement","Very Strong Disagreement","Very Strong Agreement","Neither Agreement nor Disagreement","Moderate Agreement","Strong Agreement","Slight Disagreement","Neither Agreement nor Disagreement"
"23","A4FV7I32EYWZ7:3EJPLAJKENM3U6DS5ITRN6DVC8YZ6C","practice",2,11,2,"NA","<p style=""font-size:100px""><b>g</b></p><p style=""position: absolute; top: 30px; right: 30px; text-align:right; font-size:50px"""">N = 2</p>","g",0,69,1104,0,"agree",8,15,13,17,15,"39","Female","Good and Quite interesting one","Strong Agreement","Strong Agreement","Strong Agreement","Moderate Agreement","Slight Agreement","Slight Disagreement","Very Strong Agreement","Neither Agreement nor Disagreement","Very Strong Agreement","Moderate Agreement","Very Strong Agreement","Very Strong Disagreement","Very Strong Agreement","Neither Agreement nor Disagreement","Moderate Agreement","Strong Agreement","Slight Disagreement","Neither Agreement nor Disagreement"
"24","A4FV7I32EYWZ7:3EJPLAJKENM3U6DS5ITRN6DVC8YZ6C","practice",2,12,2,"NA","<p style=""font-size:100px""><b>b</b></p><p style=""position: absolute; top: 30px; right: 30px; text-align:right; font-size:50px"""">N = 2</p>","b",1,69,1118,1,"agree",8,15,13,17,15,"39","Female","Good and Quite interesting one","Strong Agreement","Strong Agreement","Strong Agreement","Moderate Agreement","Slight Agreement","Slight Disagreement","Very Strong Agreement","Neither Agreement nor Disagreement","Very Strong Agreement","Moderate Agreement","Very Strong Agreement","Very Strong Disagreement","Very Strong Agreement","Neither Agreement nor Disagreement","Moderate Agreement","Strong Agreement","Slight Disagreement","Neither Agreement nor Disagreement"
"25","A4FV7I32EYWZ7:3EJPLAJKENM3U6DS5ITRN6DVC8YZ6C","practice",3,1,3,"NA","<p style=""font-size:100px""><b>G</b></p><p style=""position: absolute; top: 30px; right: 30px; text-align:right; font-size:50px"""">N = 3</p>","G",0,73,1630,1,"agree",8,15,13,17,15,"39","Female","Good and Quite interesting one","Strong Agreement","Strong Agreement","Strong Agreement","Moderate Agreement","Slight Agreement","Slight Disagreement","Very Strong Agreement","Neither Agreement nor Disagreement","Very Strong Agreement","Moderate Agreement","Very Strong Agreement","Very Strong Disagreement","Very Strong Agreement","Neither Agreement nor Disagreement","Moderate Agreement","Strong Agreement","Slight Disagreement","Neither Agreement nor Disagreement"
"26","A4FV7I32EYWZ7:3EJPLAJKENM3U6DS5ITRN6DVC8YZ6C","practice",3,2,3,"NA","<p style=""font-size:100px""><b>g</b></p><p style=""position: absolute; top: 30px; right: 30px; text-align:right; font-size:50px"""">N = 3</p>","g",0,73,1441,1,"agree",8,15,13,17,15,"39","Female","Good and Quite interesting one","Strong Agreement","Strong Agreement","Strong Agreement","Moderate Agreement","Slight Agreement","Slight Disagreement","Very Strong Agreement","Neither Agreement nor Disagreement","Very Strong Agreement","Moderate Agreement","Very Strong Agreement","Very Strong Disagreement","Very Strong Agreement","Neither Agreement nor Disagreement","Moderate Agreement","Strong Agreement","Slight Disagreement","Neither Agreement nor Disagreement"
"27","A4FV7I32EYWZ7:3EJPLAJKENM3U6DS5ITRN6DVC8YZ6C","practice",3,3,3,"NA","<p style=""font-size:100px""><b>T</b></p><p style=""position: absolute; top: 30px; right: 30px; text-align:right; font-size:50px"""">N = 3</p>","T",0,73,1047,1,"agree",8,15,13,17,15,"39","Female","Good and Quite interesting one","Strong Agreement","Strong Agreement","Strong Agreement","Moderate Agreement","Slight Agreement","Slight Disagreement","Very Strong Agreement","Neither Agreement nor Disagreement","Very Strong Agreement","Moderate Agreement","Very Strong Agreement","Very Strong Disagreement","Very Strong Agreement","Neither Agreement nor Disagreement","Moderate Agreement","Strong Agreement","Slight Disagreement","Neither Agreement nor Disagreement"
"28","A4FV7I32EYWZ7:3EJPLAJKENM3U6DS5ITRN6DVC8YZ6C","practice",3,4,3,"NA","<p style=""font-size:100px""><b>G</b></p><p style=""position: absolute; top: 30px; right: 30px; text-align:right; font-size:50px"""">N = 3</p>","G",1,69,1818,1,"agree",8,15,13,17,15,"39","Female","Good and Quite interesting one","Strong Agreement","Strong Agreement","Strong Agreement","Moderate Agreement","Slight Agreement","Slight Disagreement","Very Strong Agreement","Neither Agreement nor Disagreement","Very Strong Agreement","Moderate Agreement","Very Strong Agreement","Very Strong Disagreement","Very Strong Agreement","Neither Agreement nor Disagreement","Moderate Agreement","Strong Agreement","Slight Disagreement","Neither Agreement nor Disagreement"
"29","A4FV7I32EYWZ7:3EJPLAJKENM3U6DS5ITRN6DVC8YZ6C","practice",3,5,3,"NA","<p style=""font-size:100px""><b>d</b></p><p style=""position: absolute; top: 30px; right: 30px; text-align:right; font-size:50px"""">N = 3</p>","d",0,73,1280,1,"agree",8,15,13,17,15,"39","Female","Good and Quite interesting one","Strong Agreement","Strong Agreement","Strong Agreement","Moderate Agreement","Slight Agreement","Slight Disagreement","Very Strong Agreement","Neither Agreement nor Disagreement","Very Strong Agreement","Moderate Agreement","Very Strong Agreement","Very Strong Disagreement","Very Strong Agreement","Neither Agreement nor Disagreement","Moderate Agreement","Strong Agreement","Slight Disagreement","Neither Agreement nor Disagreement"
"30","A4FV7I32EYWZ7:3EJPLAJKENM3U6DS5ITRN6DVC8YZ6C","practice",3,6,3,"NA","<p style=""font-size:100px""><b>D</b></p><p style=""position: absolute; top: 30px; right: 30px; text-align:right; font-size:50px"""">N = 3</p>","D",0,73,1414,1,"agree",8,15,13,17,15,"39","Female","Good and Quite interesting one","Strong Agreement","Strong Agreement","Strong Agreement","Moderate Agreement","Slight Agreement","Slight Disagreement","Very Strong Agreement","Neither Agreement nor Disagreement","Very Strong Agreement","Moderate Agreement","Very Strong Agreement","Very Strong Disagreement","Very Strong Agreement","Neither Agreement nor Disagreement","Moderate Agreement","Strong Agreement","Slight Disagreement","Neither Agreement nor Disagreement"
"31","A4FV7I32EYWZ7:3EJPLAJKENM3U6DS5ITRN6DVC8YZ6C","practice",3,7,3,"NA","<p style=""font-size:100px""><b>b</b></p><p style=""position: absolute; top: 30px; right: 30px; text-align:right; font-size:50px"""">N = 3</p>","b",0,69,1537,0,"agree",8,15,13,17,15,"39","Female","Good and Quite interesting one","Strong Agreement","Strong Agreement","Strong Agreement","Moderate Agreement","Slight Agreement","Slight Disagreement","Very Strong Agreement","Neither Agreement nor Disagreement","Very Strong Agreement","Moderate Agreement","Very Strong Agreement","Very Strong Disagreement","Very Strong Agreement","Neither Agreement nor Disagreement","Moderate Agreement","Strong Agreement","Slight Disagreement","Neither Agreement nor Disagreement"
"32","A4FV7I32EYWZ7:3EJPLAJKENM3U6DS5ITRN6DVC8YZ6C","practice",3,8,3,"NA","<p style=""font-size:100px""><b>v</b></p><p style=""position: absolute; top: 30px; right: 30px; text-align:right; font-size:50px"""">N = 3</p>","v",0,69,2251,0,"agree",8,15,13,17,15,"39","Female","Good and Quite interesting one","Strong Agreement","Strong Agreement","Strong Agreement","Moderate Agreement","Slight Agreement","Slight Disagreement","Very Strong Agreement","Neither Agreement nor Disagreement","Very Strong Agreement","Moderate Agreement","Very Strong Agreement","Very Strong Disagreement","Very Strong Agreement","Neither Agreement nor Disagreement","Moderate Agreement","Strong Agreement","Slight Disagreement","Neither Agreement nor Disagreement"
"33","A4FV7I32EYWZ7:3EJPLAJKENM3U6DS5ITRN6DVC8YZ6C","practice",3,9,3,"NA","<p style=""font-size:100px""><b>D</b></p><p style=""position: absolute; top: 30px; right: 30px; text-align:right; font-size:50px"""">N = 3</p>","D",1,69,1412,1,"agree",8,15,13,17,15,"39","Female","Good and Quite interesting one","Strong Agreement","Strong Agreement","Strong Agreement","Moderate Agreement","Slight Agreement","Slight Disagreement","Very Strong Agreement","Neither Agreement nor Disagreement","Very Strong Agreement","Moderate Agreement","Very Strong Agreement","Very Strong Disagreement","Very Strong Agreement","Neither Agreement nor Disagreement","Moderate Agreement","Strong Agreement","Slight Disagreement","Neither Agreement nor Disagreement"
"34","A4FV7I32EYWZ7:3EJPLAJKENM3U6DS5ITRN6DVC8YZ6C","practice",3,10,3,"NA","<p style=""font-size:100px""><b>G</b></p><p style=""position: absolute; top: 30px; right: 30px; text-align:right; font-size:50px"""">N = 3</p>","G",0,69,1754,0,"agree",8,15,13,17,15,"39","Female","Good and Quite interesting one","Strong Agreement","Strong Agreement","Strong Agreement","Moderate Agreement","Slight Agreement","Slight Disagreement","Very Strong Agreement","Neither Agreement nor Disagreement","Very Strong Agreement","Moderate Agreement","Very Strong Agreement","Very Strong Disagreement","Very Strong Agreement","Neither Agreement nor Disagreement","Moderate Agreement","Strong Agreement","Slight Disagreement","Neither Agreement nor Disagreement"
"35","A4FV7I32EYWZ7:3EJPLAJKENM3U6DS5ITRN6DVC8YZ6C","practice",3,11,3,"NA","<p style=""font-size:100px""><b>v</b></p><p style=""position: absolute; top: 30px; right: 30px; text-align:right; font-size:50px"""">N = 3</p>","v",1,69,1151,1,"agree",8,15,13,17,15,"39","Female","Good and Quite interesting one","Strong Agreement","Strong Agreement","Strong Agreement","Moderate Agreement","Slight Agreement","Slight Disagreement","Very Strong Agreement","Neither Agreement nor Disagreement","Very Strong Agreement","Moderate Agreement","Very Strong Agreement","Very Strong Disagreement","Very Strong Agreement","Neither Agreement nor Disagreement","Moderate Agreement","Strong Agreement","Slight Disagreement","Neither Agreement nor Disagreement"
"36","A4FV7I32EYWZ7:3EJPLAJKENM3U6DS5ITRN6DVC8YZ6C","practice",3,12,3,"NA","<p style=""font-size:100px""><b>D</b></p><p style=""position: absolute; top: 30px; right: 30px; text-align:right; font-size:50px"""">N = 3</p>","D",1,69,1360,1,"agree",8,15,13,17,15,"39","Female","Good and Quite interesting one","Strong Agreement","Strong Agreement","Strong Agreement","Moderate Agreement","Slight Agreement","Slight Disagreement","Very Strong Agreement","Neither Agreement nor Disagreement","Very Strong Agreement","Moderate Agreement","Very Strong Agreement","Very Strong Disagreement","Very Strong Agreement","Neither Agreement nor Disagreement","Moderate Agreement","Strong Agreement","Slight Disagreement","Neither Agreement nor Disagreement"
"37","A4FV7I32EYWZ7:3EJPLAJKENM3U6DS5ITRN6DVC8YZ6C","1",1,1,2,"50","<p style=""font-size:100px""><b>P</b></p><p style=""position: absolute; top: 30px; right: 30px; text-align:right; font-size:50px"""">N = 2</p>","P",0,NA,NA,0,"agree",8,15,13,17,15,"39","Female","Good and Quite interesting one","Strong Agreement","Strong Agreement","Strong Agreement","Moderate Agreement","Slight Agreement","Slight Disagreement","Very Strong Agreement","Neither Agreement nor Disagreement","Very Strong Agreement","Moderate Agreement","Very Strong Agreement","Very Strong Disagreement","Very Strong Agreement","Neither Agreement nor Disagreement","Moderate Agreement","Strong Agreement","Slight Disagreement","Neither Agreement nor Disagreement"
"38","A4FV7I32EYWZ7:3EJPLAJKENM3U6DS5ITRN6DVC8YZ6C","1",1,2,2,"50","<p style=""font-size:100px""><b>g</b></p><p style=""position: absolute; top: 30px; right: 30px; text-align:right; font-size:50px"""">N = 2</p>","g",0,NA,NA,0,"agree",8,15,13,17,15,"39","Female","Good and Quite interesting one","Strong Agreement","Strong Agreement","Strong Agreement","Moderate Agreement","Slight Agreement","Slight Disagreement","Very Strong Agreement","Neither Agreement nor Disagreement","Very Strong Agreement","Moderate Agreement","Very Strong Agreement","Very Strong Disagreement","Very Strong Agreement","Neither Agreement nor Disagreement","Moderate Agreement","Strong Agreement","Slight Disagreement","Neither Agreement nor Disagreement"
"39","A4FV7I32EYWZ7:3EJPLAJKENM3U6DS5ITRN6DVC8YZ6C","1",1,3,2,"50","<p style=""font-size:100px""><b>b</b></p><p style=""position: absolute; top: 30px; right: 30px; text-align:right; font-size:50px"""">N = 2</p>","b",0,NA,NA,0,"agree",8,15,13,17,15,"39","Female","Good and Quite interesting one","Strong Agreement","Strong Agreement","Strong Agreement","Moderate Agreement","Slight Agreement","Slight Disagreement","Very Strong Agreement","Neither Agreement nor Disagreement","Very Strong Agreement","Moderate Agreement","Very Strong Agreement","Very Strong Disagreement","Very Strong Agreement","Neither Agreement nor Disagreement","Moderate Agreement","Strong Agreement","Slight Disagreement","Neither Agreement nor Disagreement"
"40","A4FV7I32EYWZ7:3EJPLAJKENM3U6DS5ITRN6DVC8YZ6C","1",1,4,2,"50","<p style=""font-size:100px""><b>g</b></p><p style=""position: absolute; top: 30px; right: 30px; text-align:right; font-size:50px"""">N = 2</p>","g",0,NA,NA,0,"agree",8,15,13,17,15,"39","Female","Good and Quite interesting one","Strong Agreement","Strong Agreement","Strong Agreement","Moderate Agreement","Slight Agreement","Slight Disagreement","Very Strong Agreement","Neither Agreement nor Disagreement","Very Strong Agreement","Moderate Agreement","Very Strong Agreement","Very Strong Disagreement","Very Strong Agreement","Neither Agreement nor Disagreement","Moderate Agreement","Strong Agreement","Slight Disagreement","Neither Agreement nor Disagreement"
"41","A4FV7I32EYWZ7:3EJPLAJKENM3U6DS5ITRN6DVC8YZ6C","1",1,5,2,"50","<p style=""font-size:100px""><b>V</b></p><p style=""position: absolute; top: 30px; right: 30px; text-align:right; font-size:50px"""">N = 2</p>","V",0,NA,NA,0,"agree",8,15,13,17,15,"39","Female","Good and Quite interesting one","Strong Agreement","Strong Agreement","Strong Agreement","Moderate Agreement","Slight Agreement","Slight Disagreement","Very Strong Agreement","Neither Agreement nor Disagreement","Very Strong Agreement","Moderate Agreement","Very Strong Agreement","Very Strong Disagreement","Very Strong Agreement","Neither Agreement nor Disagreement","Moderate Agreement","Strong Agreement","Slight Disagreement","Neither Agreement nor Disagreement"
"42","A4FV7I32EYWZ7:3EJPLAJKENM3U6DS5ITRN6DVC8YZ6C","1",1,6,2,"50","<p style=""font-size:100px""><b>B</b></p><p style=""position: absolute; top: 30px; right: 30px; text-align:right; font-size:50px"""">N = 2</p>","B",0,NA,NA,0,"agree",8,15,13,17,15,"39","Female","Good and Quite interesting one","Strong Agreement","Strong Agreement","Strong Agreement","Moderate Agreement","Slight Agreement","Slight Disagreement","Very Strong Agreement","Neither Agreement nor Disagreement","Very Strong Agreement","Moderate Agreement","Very Strong Agreement","Very Strong Disagreement","Very Strong Agreement","Neither Agreement nor Disagreement","Moderate Agreement","Strong Agreement","Slight Disagreement","Neither Agreement nor Disagreement"
"43","A4FV7I32EYWZ7:3EJPLAJKENM3U6DS5ITRN6DVC8YZ6C","1",1,7,2,"50","<p style=""font-size:100px""><b>V</b></p><p style=""position: absolute; top: 30px; right: 30px; text-align:right; font-size:50px"""">N = 2</p>","V",0,NA,NA,0,"agree",8,15,13,17,15,"39","Female","Good and Quite interesting one","Strong Agreement","Strong Agreement","Strong Agreement","Moderate Agreement","Slight Agreement","Slight Disagreement","Very Strong Agreement","Neither Agreement nor Disagreement","Very Strong Agreement","Moderate Agreement","Very Strong Agreement","Very Strong Disagreement","Very Strong Agreement","Neither Agreement nor Disagreement","Moderate Agreement","Strong Agreement","Slight Disagreement","Neither Agreement nor Disagreement"
"44","A4FV7I32EYWZ7:3EJPLAJKENM3U6DS5ITRN6DVC8YZ6C","1",1,8,2,"50","<p style=""font-size:100px""><b>P</b></p><p style=""position: absolute; top: 30px; right: 30px; text-align:right; font-size:50px"""">N = 2</p>","P",0,NA,NA,0,"agree",8,15,13,17,15,"39","Female","Good and Quite interesting one","Strong Agreement","Strong Agreement","Strong Agreement","Moderate Agreement","Slight Agreement","Slight Disagreement","Very Strong Agreement","Neither Agreement nor Disagreement","Very Strong Agreement","Moderate Agreement","Very Strong Agreement","Very Strong Disagreement","Very Strong Agreement","Neither Agreement nor Disagreement","Moderate Agreement","Strong Agreement","Slight Disagreement","Neither Agreement nor Disagreement"
"45","A4FV7I32EYWZ7:3EJPLAJKENM3U6DS5ITRN6DVC8YZ6C","1",1,9,2,"50","<p style=""font-size:100px""><b>V</b></p><p style=""position: absolute; top: 30px; right: 30px; text-align:right; font-size:50px"""">N = 2</p>","V",0,73,766,1,"agree",8,15,13,17,15,"39","Female","Good and Quite interesting one","Strong Agreement","Strong Agreement","Strong Agreement","Moderate Agreement","Slight Agreement","Slight Disagreement","Very Strong Agreement","Neither Agreement nor Disagreement","Very Strong Agreement","Moderate Agreement","Very Strong Agreement","Very Strong Disagreement","Very Strong Agreement","Neither Agreement nor Disagreement","Moderate Agreement","Strong Agreement","Slight Disagreement","Neither Agreement nor Disagreement"
"46","A4FV7I32EYWZ7:3EJPLAJKENM3U6DS5ITRN6DVC8YZ6C","1",1,10,2,"50","<p style=""font-size:100px""><b>D</b></p><p style=""position: absolute; top: 30px; right: 30px; text-align:right; font-size:50px"""">N = 2</p>","D",0,73,634,1,"agree",8,15,13,17,15,"39","Female","Good and Quite interesting one","Strong Agreement","Strong Agreement","Strong Agreement","Moderate Agreement","Slight Agreement","Slight Disagreement","Very Strong Agreement","Neither Agreement nor Disagreement","Very Strong Agreement","Moderate Agreement","Very Strong Agreement","Very Strong Disagreement","Very Strong Agreement","Neither Agreement nor Disagreement","Moderate Agreement","Strong Agreement","Slight Disagreement","Neither Agreement nor Disagreement"
"47","A4FV7I32EYWZ7:3EJPLAJKENM3U6DS5ITRN6DVC8YZ6C","1",1,11,2,"50","<p style=""font-size:100px""><b>B</b></p><p style=""position: absolute; top: 30px; right: 30px; text-align:right; font-size:50px"""">N = 2</p>","B",0,69,759,0,"agree",8,15,13,17,15,"39","Female","Good and Quite interesting one","Strong Agreement","Strong Agreement","Strong Agreement","Moderate Agreement","Slight Agreement","Slight Disagreement","Very Strong Agreement","Neither Agreement nor Disagreement","Very Strong Agreement","Moderate Agreement","Very Strong Agreement","Very Strong Disagreement","Very Strong Agreement","Neither Agreement nor Disagreement","Moderate Agreement","Strong Agreement","Slight Disagreement","Neither Agreement nor Disagreement"
"48","A4FV7I32EYWZ7:3EJPLAJKENM3U6DS5ITRN6DVC8YZ6C","1",1,12,2,"50","<p style=""font-size:100px""><b>D</b></p><p style=""position: absolute; top: 30px; right: 30px; text-align:right; font-size:50px"""">N = 2</p>","D",0,73,985,1,"agree",8,15,13,17,15,"39","Female","Good and Quite interesting one","Strong Agreement","Strong Agreement","Strong Agreement","Moderate Agreement","Slight Agreement","Slight Disagreement","Very Strong Agreement","Neither Agreement nor Disagreement","Very Strong Agreement","Moderate Agreement","Very Strong Agreement","Very Strong Disagreement","Very Strong Agreement","Neither Agreement nor Disagreement","Moderate Agreement","Strong Agreement","Slight Disagreement","Neither Agreement nor Disagreement"
"49","A4FV7I32EYWZ7:3EJPLAJKENM3U6DS5ITRN6DVC8YZ6C","1",2,1,1,"5","<p style=""font-size:100px""><b>g</b></p><p style=""position: absolute; top: 30px; right: 30px; text-align:right; font-size:50px"""">N = 1</p>","g",0,69,569,0,"agree",15,17,14,16,12,"39","Female","Good and Quite interesting one","Strong Agreement","Strong Agreement","Strong Agreement","Moderate Agreement","Slight Agreement","Slight Disagreement","Very Strong Agreement","Neither Agreement nor Disagreement","Very Strong Agreement","Moderate Agreement","Very Strong Agreement","Very Strong Disagreement","Very Strong Agreement","Neither Agreement nor Disagreement","Moderate Agreement","Strong Agreement","Slight Disagreement","Neither Agreement nor Disagreement"
"50","A4FV7I32EYWZ7:3EJPLAJKENM3U6DS5ITRN6DVC8YZ6C","1",2,2,1,"5","<p style=""font-size:100px""><b>V</b></p><p style=""position: absolute; top: 30px; right: 30px; text-align:right; font-size:50px"""">N = 1</p>","V",0,69,569,0,"agree",15,17,14,16,12,"39","Female","Good and Quite interesting one","Strong Agreement","Strong Agreement","Strong Agreement","Moderate Agreement","Slight Agreement","Slight Disagreement","Very Strong Agreement","Neither Agreement nor Disagreement","Very Strong Agreement","Moderate Agreement","Very Strong Agreement","Very Strong Disagreement","Very Strong Agreement","Neither Agreement nor Disagreement","Moderate Agreement","Strong Agreement","Slight Disagreement","Neither Agreement nor Disagreement"
"51","A4FV7I32EYWZ7:3EJPLAJKENM3U6DS5ITRN6DVC8YZ6C","1",2,3,1,"5","<p style=""font-size:100px""><b>b</b></p><p style=""position: absolute; top: 30px; right: 30px; text-align:right; font-size:50px"""">N = 1</p>","b",0,69,881,0,"agree",15,17,14,16,12,"39","Female","Good and Quite interesting one","Strong Agreement","Strong Agreement","Strong Agreement","Moderate Agreement","Slight Agreement","Slight Disagreement","Very Strong Agreement","Neither Agreement nor Disagreement","Very Strong Agreement","Moderate Agreement","Very Strong Agreement","Very Strong Disagreement","Very Strong Agreement","Neither Agreement nor Disagreement","Moderate Agreement","Strong Agreement","Slight Disagreement","Neither Agreement nor Disagreement"
"52","A4FV7I32EYWZ7:3EJPLAJKENM3U6DS5ITRN6DVC8YZ6C","1",2,4,1,"5","<p style=""font-size:100px""><b>b</b></p><p style=""position: absolute; top: 30px; right: 30px; text-align:right; font-size:50px"""">N = 1</p>","b",0,73,896,1,"agree",15,17,14,16,12,"39","Female","Good and Quite interesting one","Strong Agreement","Strong Agreement","Strong Agreement","Moderate Agreement","Slight Agreement","Slight Disagreement","Very Strong Agreement","Neither Agreement nor Disagreement","Very Strong Agreement","Moderate Agreement","Very Strong Agreement","Very Strong Disagreement","Very Strong Agreement","Neither Agreement nor Disagreement","Moderate Agreement","Strong Agreement","Slight Disagreement","Neither Agreement nor Disagreement"
"53","A4FV7I32EYWZ7:3EJPLAJKENM3U6DS5ITRN6DVC8YZ6C","1",2,5,1,"5","<p style=""font-size:100px""><b>V</b></p><p style=""position: absolute; top: 30px; right: 30px; text-align:right; font-size:50px"""">N = 1</p>","V",0,NA,NA,0,"agree",15,17,14,16,12,"39","Female","Good and Quite interesting one","Strong Agreement","Strong Agreement","Strong Agreement","Moderate Agreement","Slight Agreement","Slight Disagreement","Very Strong Agreement","Neither Agreement nor Disagreement","Very Strong Agreement","Moderate Agreement","Very Strong Agreement","Very Strong Disagreement","Very Strong Agreement","Neither Agreement nor Disagreement","Moderate Agreement","Strong Agreement","Slight Disagreement","Neither Agreement nor Disagreement"
"54","A4FV7I32EYWZ7:3EJPLAJKENM3U6DS5ITRN6DVC8YZ6C","1",2,6,1,"5","<p style=""font-size:100px""><b>t</b></p><p style=""position: absolute; top: 30px; right: 30px; text-align:right; font-size:50px"""">N = 1</p>","t",0,73,673,1,"agree",15,17,14,16,12,"39","Female","Good and Quite interesting one","Strong Agreement","Strong Agreement","Strong Agreement","Moderate Agreement","Slight Agreement","Slight Disagreement","Very Strong Agreement","Neither Agreement nor Disagreement","Very Strong Agreement","Moderate Agreement","Very Strong Agreement","Very Strong Disagreement","Very Strong Agreement","Neither Agreement nor Disagreement","Moderate Agreement","Strong Agreement","Slight Disagreement","Neither Agreement nor Disagreement"
"55","A4FV7I32EYWZ7:3EJPLAJKENM3U6DS5ITRN6DVC8YZ6C","1",2,7,1,"5","<p style=""font-size:100px""><b>t</b></p><p style=""position: absolute; top: 30px; right: 30px; text-align:right; font-size:50px"""">N = 1</p>","t",0,73,429,1,"agree",15,17,14,16,12,"39","Female","Good and Quite interesting one","Strong Agreement","Strong Agreement","Strong Agreement","Moderate Agreement","Slight Agreement","Slight Disagreement","Very Strong Agreement","Neither Agreement nor Disagreement","Very Strong Agreement","Moderate Agreement","Very Strong Agreement","Very Strong Disagreement","Very Strong Agreement","Neither Agreement nor Disagreement","Moderate Agreement","Strong Agreement","Slight Disagreement","Neither Agreement nor Disagreement"
"56","A4FV7I32EYWZ7:3EJPLAJKENM3U6DS5ITRN6DVC8YZ6C","1",2,8,1,"5","<p style=""font-size:100px""><b>g</b></p><p style=""position: absolute; top: 30px; right: 30px; text-align:right; font-size:50px"""">N = 1</p>","g",0,69,712,0,"agree",15,17,14,16,12,"39","Female","Good and Quite interesting one","Strong Agreement","Strong Agreement","Strong Agreement","Moderate Agreement","Slight Agreement","Slight Disagreement","Very Strong Agreement","Neither Agreement nor Disagreement","Very Strong Agreement","Moderate Agreement","Very Strong Agreement","Very Strong Disagreement","Very Strong Agreement","Neither Agreement nor Disagreement","Moderate Agreement","Strong Agreement","Slight Disagreement","Neither Agreement nor Disagreement"
"57","A4FV7I32EYWZ7:3EJPLAJKENM3U6DS5ITRN6DVC8YZ6C","1",2,9,1,"5","<p style=""font-size:100px""><b>g</b></p><p style=""position: absolute; top: 30px; right: 30px; text-align:right; font-size:50px"""">N = 1</p>","g",0,69,528,0,"agree",15,17,14,16,12,"39","Female","Good and Quite interesting one","Strong Agreement","Strong Agreement","Strong Agreement","Moderate Agreement","Slight Agreement","Slight Disagreement","Very Strong Agreement","Neither Agreement nor Disagreement","Very Strong Agreement","Moderate Agreement","Very Strong Agreement","Very Strong Disagreement","Very Strong Agreement","Neither Agreement nor Disagreement","Moderate Agreement","Strong Agreement","Slight Disagreement","Neither Agreement nor Disagreement"
"58","A4FV7I32EYWZ7:3EJPLAJKENM3U6DS5ITRN6DVC8YZ6C","1",2,10,1,"5","<p style=""font-size:100px""><b>g</b></p><p style=""position: absolute; top: 30px; right: 30px; text-align:right; font-size:50px"""">N = 1</p>","g",0,69,580,0,"agree",15,17,14,16,12,"39","Female","Good and Quite interesting one","Strong Agreement","Strong Agreement","Strong Agreement","Moderate Agreement","Slight Agreement","Slight Disagreement","Very Strong Agreement","Neither Agreement nor Disagreement","Very Strong Agreement","Moderate Agreement","Very Strong Agreement","Very Strong Disagreement","Very Strong Agreement","Neither Agreement nor Disagreement","Moderate Agreement","Strong Agreement","Slight Disagreement","Neither Agreement nor Disagreement"
"59","A4FV7I32EYWZ7:3EJPLAJKENM3U6DS5ITRN6DVC8YZ6C","1",2,11,1,"5","<p style=""font-size:100px""><b>P</b></p><p style=""position: absolute; top: 30px; right: 30px; text-align:right; font-size:50px"""">N = 1</p>","P",0,73,717,1,"agree",15,17,14,16,12,"39","Female","Good and Quite interesting one","Strong Agreement","Strong Agreement","Strong Agreement","Moderate Agreement","Slight Agreement","Slight Disagreement","Very Strong Agreement","Neither Agreement nor Disagreement","Very Strong Agreement","Moderate Agreement","Very Strong Agreement","Very Strong Disagreement","Very Strong Agreement","Neither Agreement nor Disagreement","Moderate Agreement","Strong Agreement","Slight Disagreement","Neither Agreement nor Disagreement"
"60","A4FV7I32EYWZ7:3EJPLAJKENM3U6DS5ITRN6DVC8YZ6C","1",2,12,1,"5","<p style=""font-size:100px""><b>D</b></p><p style=""position: absolute; top: 30px; right: 30px; text-align:right; font-size:50px"""">N = 1</p>","D",0,73,873,1,"agree",15,17,14,16,12,"39","Female","Good and Quite interesting one","Strong Agreement","Strong Agreement","Strong Agreement","Moderate Agreement","Slight Agreement","Slight Disagreement","Very Strong Agreement","Neither Agreement nor Disagreement","Very Strong Agreement","Moderate Agreement","Very Strong Agreement","Very Strong Disagreement","Very Strong Agreement","Neither Agreement nor Disagreement","Moderate Agreement","Strong Agreement","Slight Disagreement","Neither Agreement nor Disagreement"
"61","A4FV7I32EYWZ7:3EJPLAJKENM3U6DS5ITRN6DVC8YZ6C","1",3,1,3,"5","<p style=""font-size:100px""><b>d</b></p><p style=""position: absolute; top: 30px; right: 30px; text-align:right; font-size:50px"""">N = 3</p>","d",0,NA,NA,0,"agree",17,8,16,15,18,"39","Female","Good and Quite interesting one","Strong Agreement","Strong Agreement","Strong Agreement","Moderate Agreement","Slight Agreement","Slight Disagreement","Very Strong Agreement","Neither Agreement nor Disagreement","Very Strong Agreement","Moderate Agreement","Very Strong Agreement","Very Strong Disagreement","Very Strong Agreement","Neither Agreement nor Disagreement","Moderate Agreement","Strong Agreement","Slight Disagreement","Neither Agreement nor Disagreement"
"62","A4FV7I32EYWZ7:3EJPLAJKENM3U6DS5ITRN6DVC8YZ6C","1",3,2,3,"5","<p style=""font-size:100px""><b>v</b></p><p style=""position: absolute; top: 30px; right: 30px; text-align:right; font-size:50px"""">N = 3</p>","v",0,73,706,1,"agree",17,8,16,15,18,"39","Female","Good and Quite interesting one","Strong Agreement","Strong Agreement","Strong Agreement","Moderate Agreement","Slight Agreement","Slight Disagreement","Very Strong Agreement","Neither Agreement nor Disagreement","Very Strong Agreement","Moderate Agreement","Very Strong Agreement","Very Strong Disagreement","Very Strong Agreement","Neither Agreement nor Disagreement","Moderate Agreement","Strong Agreement","Slight Disagreement","Neither Agreement nor Disagreement"
"63","A4FV7I32EYWZ7:3EJPLAJKENM3U6DS5ITRN6DVC8YZ6C","1",3,3,3,"5","<p style=""font-size:100px""><b>P</b></p><p style=""position: absolute; top: 30px; right: 30px; text-align:right; font-size:50px"""">N = 3</p>","P",0,73,937,1,"agree",17,8,16,15,18,"39","Female","Good and Quite interesting one","Strong Agreement","Strong Agreement","Strong Agreement","Moderate Agreement","Slight Agreement","Slight Disagreement","Very Strong Agreement","Neither Agreement nor Disagreement","Very Strong Agreement","Moderate Agreement","Very Strong Agreement","Very Strong Disagreement","Very Strong Agreement","Neither Agreement nor Disagreement","Moderate Agreement","Strong Agreement","Slight Disagreement","Neither Agreement nor Disagreement"
"64","A4FV7I32EYWZ7:3EJPLAJKENM3U6DS5ITRN6DVC8YZ6C","1",3,4,3,"5","<p style=""font-size:100px""><b>g</b></p><p style=""position: absolute; top: 30px; right: 30px; text-align:right; font-size:50px"""">N = 3</p>","g",0,73,855,1,"agree",17,8,16,15,18,"39","Female","Good and Quite interesting one","Strong Agreement","Strong Agreement","Strong Agreement","Moderate Agreement","Slight Agreement","Slight Disagreement","Very Strong Agreement","Neither Agreement nor Disagreement","Very Strong Agreement","Moderate Agreement","Very Strong Agreement","Very Strong Disagreement","Very Strong Agreement","Neither Agreement nor Disagreement","Moderate Agreement","Strong Agreement","Slight Disagreement","Neither Agreement nor Disagreement"
"65","A4FV7I32EYWZ7:3EJPLAJKENM3U6DS5ITRN6DVC8YZ6C","1",3,5,3,"5","<p style=""font-size:100px""><b>v</b></p><p style=""position: absolute; top: 30px; right: 30px; text-align:right; font-size:50px"""">N = 3</p>","v",0,NA,NA,0,"agree",17,8,16,15,18,"39","Female","Good and Quite interesting one","Strong Agreement","Strong Agreement","Strong Agreement","Moderate Agreement","Slight Agreement","Slight Disagreement","Very Strong Agreement","Neither Agreement nor Disagreement","Very Strong Agreement","Moderate Agreement","Very Strong Agreement","Very Strong Disagreement","Very Strong Agreement","Neither Agreement nor Disagreement","Moderate Agreement","Strong Agreement","Slight Disagreement","Neither Agreement nor Disagreement"
"66","A4FV7I32EYWZ7:3EJPLAJKENM3U6DS5ITRN6DVC8YZ6C","1",3,6,3,"5","<p style=""font-size:100px""><b>v</b></p><p style=""position: absolute; top: 30px; right: 30px; text-align:right; font-size:50px"""">N = 3</p>","v",0,69,763,0,"agree",17,8,16,15,18,"39","Female","Good and Quite interesting one","Strong Agreement","Strong Agreement","Strong Agreement","Moderate Agreement","Slight Agreement","Slight Disagreement","Very Strong Agreement","Neither Agreement nor Disagreement","Very Strong Agreement","Moderate Agreement","Very Strong Agreement","Very Strong Disagreement","Very Strong Agreement","Neither Agreement nor Disagreement","Moderate Agreement","Strong Agreement","Slight Disagreement","Neither Agreement nor Disagreement"
"67","A4FV7I32EYWZ7:3EJPLAJKENM3U6DS5ITRN6DVC8YZ6C","1",3,7,3,"5","<p style=""font-size:100px""><b>d</b></p><p style=""position: absolute; top: 30px; right: 30px; text-align:right; font-size:50px"""">N = 3</p>","d",0,NA,NA,0,"agree",17,8,16,15,18,"39","Female","Good and Quite interesting one","Strong Agreement","Strong Agreement","Strong Agreement","Moderate Agreement","Slight Agreement","Slight Disagreement","Very Strong Agreement","Neither Agreement nor Disagreement","Very Strong Agreement","Moderate Agreement","Very Strong Agreement","Very Strong Disagreement","Very Strong Agreement","Neither Agreement nor Disagreement","Moderate Agreement","Strong Agreement","Slight Disagreement","Neither Agreement nor Disagreement"
"68","A4FV7I32EYWZ7:3EJPLAJKENM3U6DS5ITRN6DVC8YZ6C","1",3,8,3,"5","<p style=""font-size:100px""><b>d</b></p><p style=""position: absolute; top: 30px; right: 30px; text-align:right; font-size:50px"""">N = 3</p>","d",0,69,692,0,"agree",17,8,16,15,18,"39","Female","Good and Quite interesting one","Strong Agreement","Strong Agreement","Strong Agreement","Moderate Agreement","Slight Agreement","Slight Disagreement","Very Strong Agreement","Neither Agreement nor Disagreement","Very Strong Agreement","Moderate Agreement","Very Strong Agreement","Very Strong Disagreement","Very Strong Agreement","Neither Agreement nor Disagreement","Moderate Agreement","Strong Agreement","Slight Disagreement","Neither Agreement nor Disagreement"
"69","A4FV7I32EYWZ7:3EJPLAJKENM3U6DS5ITRN6DVC8YZ6C","1",3,9,3,"5","<p style=""font-size:100px""><b>v</b></p><p style=""position: absolute; top: 30px; right: 30px; text-align:right; font-size:50px"""">N = 3</p>","v",0,NA,NA,0,"agree",17,8,16,15,18,"39","Female","Good and Quite interesting one","Strong Agreement","Strong Agreement","Strong Agreement","Moderate Agreement","Slight Agreement","Slight Disagreement","Very Strong Agreement","Neither Agreement nor Disagreement","Very Strong Agreement","Moderate Agreement","Very Strong Agreement","Very Strong Disagreement","Very Strong Agreement","Neither Agreement nor Disagreement","Moderate Agreement","Strong Agreement","Slight Disagreement","Neither Agreement nor Disagreement"
"70","A4FV7I32EYWZ7:3EJPLAJKENM3U6DS5ITRN6DVC8YZ6C","1",3,10,3,"5","<p style=""font-size:100px""><b>g</b></p><p style=""position: absolute; top: 30px; right: 30px; text-align:right; font-size:50px"""">N = 3</p>","g",0,69,999,0,"agree",17,8,16,15,18,"39","Female","Good and Quite interesting one","Strong Agreement","Strong Agreement","Strong Agreement","Moderate Agreement","Slight Agreement","Slight Disagreement","Very Strong Agreement","Neither Agreement nor Disagreement","Very Strong Agreement","Moderate Agreement","Very Strong Agreement","Very Strong Disagreement","Very Strong Agreement","Neither Agreement nor Disagreement","Moderate Agreement","Strong Agreement","Slight Disagreement","Neither Agreement nor Disagreement"
"71","A4FV7I32EYWZ7:3EJPLAJKENM3U6DS5ITRN6DVC8YZ6C","1",3,11,3,"5","<p style=""font-size:100px""><b>d</b></p><p style=""position: absolute; top: 30px; right: 30px; text-align:right; font-size:50px"""">N = 3</p>","d",0,NA,NA,0,"agree",17,8,16,15,18,"39","Female","Good and Quite interesting one","Strong Agreement","Strong Agreement","Strong Agreement","Moderate Agreement","Slight Agreement","Slight Disagreement","Very Strong Agreement","Neither Agreement nor Disagreement","Very Strong Agreement","Moderate Agreement","Very Strong Agreement","Very Strong Disagreement","Very Strong Agreement","Neither Agreement nor Disagreement","Moderate Agreement","Strong Agreement","Slight Disagreement","Neither Agreement nor Disagreement"
"72","A4FV7I32EYWZ7:3EJPLAJKENM3U6DS5ITRN6DVC8YZ6C","1",3,12,3,"5","<p style=""font-size:100px""><b>v</b></p><p style=""position: absolute; top: 30px; right: 30px; text-align:right; font-size:50px"""">N = 3</p>","v",0,69,820,0,"agree",17,8,16,15,18,"39","Female","Good and Quite interesting one","Strong Agreement","Strong Agreement","Strong Agreement","Moderate Agreement","Slight Agreement","Slight Disagreement","Very Strong Agreement","Neither Agreement nor Disagreement","Very Strong Agreement","Moderate Agreement","Very Strong Agreement","Very Strong Disagreement","Very Strong Agreement","Neither Agreement nor Disagreement","Moderate Agreement","Strong Agreement","Slight Disagreement","Neither Agreement nor Disagreement"
"73","A4FV7I32EYWZ7:3EJPLAJKENM3U6DS5ITRN6DVC8YZ6C","1",4,1,3,"50","<p style=""font-size:100px""><b>D</b></p><p style=""position: absolute; top: 30px; right: 30px; text-align:right; font-size:50px"""">N = 3</p>","D",0,73,894,1,"agree",17,6,15,18,18,"39","Female","Good and Quite interesting one","Strong Agreement","Strong Agreement","Strong Agreement","Moderate Agreement","Slight Agreement","Slight Disagreement","Very Strong Agreement","Neither Agreement nor Disagreement","Very Strong Agreement","Moderate Agreement","Very Strong Agreement","Very Strong Disagreement","Very Strong Agreement","Neither Agreement nor Disagreement","Moderate Agreement","Strong Agreement","Slight Disagreement","Neither Agreement nor Disagreement"
"74","A4FV7I32EYWZ7:3EJPLAJKENM3U6DS5ITRN6DVC8YZ6C","1",4,2,3,"50","<p style=""font-size:100px""><b>B</b></p><p style=""position: absolute; top: 30px; right: 30px; text-align:right; font-size:50px"""">N = 3</p>","B",0,73,839,1,"agree",17,6,15,18,18,"39","Female","Good and Quite interesting one","Strong Agreement","Strong Agreement","Strong Agreement","Moderate Agreement","Slight Agreement","Slight Disagreement","Very Strong Agreement","Neither Agreement nor Disagreement","Very Strong Agreement","Moderate Agreement","Very Strong Agreement","Very Strong Disagreement","Very Strong Agreement","Neither Agreement nor Disagreement","Moderate Agreement","Strong Agreement","Slight Disagreement","Neither Agreement nor Disagreement"
"75","A4FV7I32EYWZ7:3EJPLAJKENM3U6DS5ITRN6DVC8YZ6C","1",4,3,3,"50","<p style=""font-size:100px""><b>v</b></p><p style=""position: absolute; top: 30px; right: 30px; text-align:right; font-size:50px"""">N = 3</p>","v",0,NA,NA,0,"agree",17,6,15,18,18,"39","Female","Good and Quite interesting one","Strong Agreement","Strong Agreement","Strong Agreement","Moderate Agreement","Slight Agreement","Slight Disagreement","Very Strong Agreement","Neither Agreement nor Disagreement","Very Strong Agreement","Moderate Agreement","Very Strong Agreement","Very Strong Disagreement","Very Strong Agreement","Neither Agreement nor Disagreement","Moderate Agreement","Strong Agreement","Slight Disagreement","Neither Agreement nor Disagreement"
"76","A4FV7I32EYWZ7:3EJPLAJKENM3U6DS5ITRN6DVC8YZ6C","1",4,4,3,"50","<p style=""font-size:100px""><b>D</b></p><p style=""position: absolute; top: 30px; right: 30px; text-align:right; font-size:50px"""">N = 3</p>","D",0,69,780,0,"agree",17,6,15,18,18,"39","Female","Good and Quite interesting one","Strong Agreement","Strong Agreement","Strong Agreement","Moderate Agreement","Slight Agreement","Slight Disagreement","Very Strong Agreement","Neither Agreement nor Disagreement","Very Strong Agreement","Moderate Agreement","Very Strong Agreement","Very Strong Disagreement","Very Strong Agreement","Neither Agreement nor Disagreement","Moderate Agreement","Strong Agreement","Slight Disagreement","Neither Agreement nor Disagreement"
"77","A4FV7I32EYWZ7:3EJPLAJKENM3U6DS5ITRN6DVC8YZ6C","1",4,5,3,"50","<p style=""font-size:100px""><b>V</b></p><p style=""position: absolute; top: 30px; right: 30px; text-align:right; font-size:50px"""">N = 3</p>","V",0,69,757,0,"agree",17,6,15,18,18,"39","Female","Good and Quite interesting one","Strong Agreement","Strong Agreement","Strong Agreement","Moderate Agreement","Slight Agreement","Slight Disagreement","Very Strong Agreement","Neither Agreement nor Disagreement","Very Strong Agreement","Moderate Agreement","Very Strong Agreement","Very Strong Disagreement","Very Strong Agreement","Neither Agreement nor Disagreement","Moderate Agreement","Strong Agreement","Slight Disagreement","Neither Agreement nor Disagreement"
"78","A4FV7I32EYWZ7:3EJPLAJKENM3U6DS5ITRN6DVC8YZ6C","1",4,6,3,"50","<p style=""font-size:100px""><b>v</b></p><p style=""position: absolute; top: 30px; right: 30px; text-align:right; font-size:50px"""">N = 3</p>","v",0,69,540,0,"agree",17,6,15,18,18,"39","Female","Good and Quite interesting one","Strong Agreement","Strong Agreement","Strong Agreement","Moderate Agreement","Slight Agreement","Slight Disagreement","Very Strong Agreement","Neither Agreement nor Disagreement","Very Strong Agreement","Moderate Agreement","Very Strong Agreement","Very Strong Disagreement","Very Strong Agreement","Neither Agreement nor Disagreement","Moderate Agreement","Strong Agreement","Slight Disagreement","Neither Agreement nor Disagreement"
"79","A4FV7I32EYWZ7:3EJPLAJKENM3U6DS5ITRN6DVC8YZ6C","1",4,7,3,"50","<p style=""font-size:100px""><b>G</b></p><p style=""position: absolute; top: 30px; right: 30px; text-align:right; font-size:50px"""">N = 3</p>","G",0,73,900,1,"agree",17,6,15,18,18,"39","Female","Good and Quite interesting one","Strong Agreement","Strong Agreement","Strong Agreement","Moderate Agreement","Slight Agreement","Slight Disagreement","Very Strong Agreement","Neither Agreement nor Disagreement","Very Strong Agreement","Moderate Agreement","Very Strong Agreement","Very Strong Disagreement","Very Strong Agreement","Neither Agreement nor Disagreement","Moderate Agreement","Strong Agreement","Slight Disagreement","Neither Agreement nor Disagreement"
"80","A4FV7I32EYWZ7:3EJPLAJKENM3U6DS5ITRN6DVC8YZ6C","1",4,8,3,"50","<p style=""font-size:100px""><b>T</b></p><p style=""position: absolute; top: 30px; right: 30px; text-align:right; font-size:50px"""">N = 3</p>","T",0,NA,NA,0,"agree",17,6,15,18,18,"39","Female","Good and Quite interesting one","Strong Agreement","Strong Agreement","Strong Agreement","Moderate Agreement","Slight Agreement","Slight Disagreement","Very Strong Agreement","Neither Agreement nor Disagreement","Very Strong Agreement","Moderate Agreement","Very Strong Agreement","Very Strong Disagreement","Very Strong Agreement","Neither Agreement nor Disagreement","Moderate Agreement","Strong Agreement","Slight Disagreement","Neither Agreement nor Disagreement"
"81","A4FV7I32EYWZ7:3EJPLAJKENM3U6DS5ITRN6DVC8YZ6C","1",4,9,3,"50","<p style=""font-size:100px""><b>p</b></p><p style=""position: absolute; top: 30px; right: 30px; text-align:right; font-size:50px"""">N = 3</p>","p",0,NA,NA,0,"agree",17,6,15,18,18,"39","Female","Good and Quite interesting one","Strong Agreement","Strong Agreement","Strong Agreement","Moderate Agreement","Slight Agreement","Slight Disagreement","Very Strong Agreement","Neither Agreement nor Disagreement","Very Strong Agreement","Moderate Agreement","Very Strong Agreement","Very Strong Disagreement","Very Strong Agreement","Neither Agreement nor Disagreement","Moderate Agreement","Strong Agreement","Slight Disagreement","Neither Agreement nor Disagreement"
"82","A4FV7I32EYWZ7:3EJPLAJKENM3U6DS5ITRN6DVC8YZ6C","1",4,10,3,"50","<p style=""font-size:100px""><b>G</b></p><p style=""position: absolute; top: 30px; right: 30px; text-align:right; font-size:50px"""">N = 3</p>","G",0,69,872,0,"agree",17,6,15,18,18,"39","Female","Good and Quite interesting one","Strong Agreement","Strong Agreement","Strong Agreement","Moderate Agreement","Slight Agreement","Slight Disagreement","Very Strong Agreement","Neither Agreement nor Disagreement","Very Strong Agreement","Moderate Agreement","Very Strong Agreement","Very Strong Disagreement","Very Strong Agreement","Neither Agreement nor Disagreement","Moderate Agreement","Strong Agreement","Slight Disagreement","Neither Agreement nor Disagreement"
"83","A4FV7I32EYWZ7:3EJPLAJKENM3U6DS5ITRN6DVC8YZ6C","1",4,11,3,"50","<p style=""font-size:100px""><b>T</b></p><p style=""position: absolute; top: 30px; right: 30px; text-align:right; font-size:50px"""">N = 3</p>","T",0,69,894,0,"agree",17,6,15,18,18,"39","Female","Good and Quite interesting one","Strong Agreement","Strong Agreement","Strong Agreement","Moderate Agreement","Slight Agreement","Slight Disagreement","Very Strong Agreement","Neither Agreement nor Disagreement","Very Strong Agreement","Moderate Agreement","Very Strong Agreement","Very Strong Disagreement","Very Strong Agreement","Neither Agreement nor Disagreement","Moderate Agreement","Strong Agreement","Slight Disagreement","Neither Agreement nor Disagreement"
"84","A4FV7I32EYWZ7:3EJPLAJKENM3U6DS5ITRN6DVC8YZ6C","1",4,12,3,"50","<p style=""font-size:100px""><b>V</b></p><p style=""position: absolute; top: 30px; right: 30px; text-align:right; font-size:50px"""">N = 3</p>","V",0,69,990,0,"agree",17,6,15,18,18,"39","Female","Good and Quite interesting one","Strong Agreement","Strong Agreement","Strong Agreement","Moderate Agreement","Slight Agreement","Slight Disagreement","Very Strong Agreement","Neither Agreement nor Disagreement","Very Strong Agreement","Moderate Agreement","Very Strong Agreement","Very Strong Disagreement","Very Strong Agreement","Neither Agreement nor Disagreement","Moderate Agreement","Strong Agreement","Slight Disagreement","Neither Agreement nor Disagreement"
"85","A4FV7I32EYWZ7:3EJPLAJKENM3U6DS5ITRN6DVC8YZ6C","1",5,1,1,"50","<p style=""font-size:100px""><b>p</b></p><p style=""position: absolute; top: 30px; right: 30px; text-align:right; font-size:50px"""">N = 1</p>","p",0,NA,NA,0,"agree",14,4,15,15,20,"39","Female","Good and Quite interesting one","Strong Agreement","Strong Agreement","Strong Agreement","Moderate Agreement","Slight Agreement","Slight Disagreement","Very Strong Agreement","Neither Agreement nor Disagreement","Very Strong Agreement","Moderate Agreement","Very Strong Agreement","Very Strong Disagreement","Very Strong Agreement","Neither Agreement nor Disagreement","Moderate Agreement","Strong Agreement","Slight Disagreement","Neither Agreement nor Disagreement"
"86","A4FV7I32EYWZ7:3EJPLAJKENM3U6DS5ITRN6DVC8YZ6C","1",5,2,1,"50","<p style=""font-size:100px""><b>b</b></p><p style=""position: absolute; top: 30px; right: 30px; text-align:right; font-size:50px"""">N = 1</p>","b",0,73,744,1,"agree",14,4,15,15,20,"39","Female","Good and Quite interesting one","Strong Agreement","Strong Agreement","Strong Agreement","Moderate Agreement","Slight Agreement","Slight Disagreement","Very Strong Agreement","Neither Agreement nor Disagreement","Very Strong Agreement","Moderate Agreement","Very Strong Agreement","Very Strong Disagreement","Very Strong Agreement","Neither Agreement nor Disagreement","Moderate Agreement","Strong Agreement","Slight Disagreement","Neither Agreement nor Disagreement"
"87","A4FV7I32EYWZ7:3EJPLAJKENM3U6DS5ITRN6DVC8YZ6C","1",5,3,1,"50","<p style=""font-size:100px""><b>D</b></p><p style=""position: absolute; top: 30px; right: 30px; text-align:right; font-size:50px"""">N = 1</p>","D",0,NA,NA,0,"agree",14,4,15,15,20,"39","Female","Good and Quite interesting one","Strong Agreement","Strong Agreement","Strong Agreement","Moderate Agreement","Slight Agreement","Slight Disagreement","Very Strong Agreement","Neither Agreement nor Disagreement","Very Strong Agreement","Moderate Agreement","Very Strong Agreement","Very Strong Disagreement","Very Strong Agreement","Neither Agreement nor Disagreement","Moderate Agreement","Strong Agreement","Slight Disagreement","Neither Agreement nor Disagreement"
"88","A4FV7I32EYWZ7:3EJPLAJKENM3U6DS5ITRN6DVC8YZ6C","1",5,4,1,"50","<p style=""font-size:100px""><b>D</b></p><p style=""position: absolute; top: 30px; right: 30px; text-align:right; font-size:50px"""">N = 1</p>","D",0,69,829,0,"agree",14,4,15,15,20,"39","Female","Good and Quite interesting one","Strong Agreement","Strong Agreement","Strong Agreement","Moderate Agreement","Slight Agreement","Slight Disagreement","Very Strong Agreement","Neither Agreement nor Disagreement","Very Strong Agreement","Moderate Agreement","Very Strong Agreement","Very Strong Disagreement","Very Strong Agreement","Neither Agreement nor Disagreement","Moderate Agreement","Strong Agreement","Slight Disagreement","Neither Agreement nor Disagreement"
"89","A4FV7I32EYWZ7:3EJPLAJKENM3U6DS5ITRN6DVC8YZ6C","1",5,5,1,"50","<p style=""font-size:100px""><b>D</b></p><p style=""position: absolute; top: 30px; right: 30px; text-align:right; font-size:50px"""">N = 1</p>","D",0,69,776,0,"agree",14,4,15,15,20,"39","Female","Good and Quite interesting one","Strong Agreement","Strong Agreement","Strong Agreement","Moderate Agreement","Slight Agreement","Slight Disagreement","Very Strong Agreement","Neither Agreement nor Disagreement","Very Strong Agreement","Moderate Agreement","Very Strong Agreement","Very Strong Disagreement","Very Strong Agreement","Neither Agreement nor Disagreement","Moderate Agreement","Strong Agreement","Slight Disagreement","Neither Agreement nor Disagreement"
"90","A4FV7I32EYWZ7:3EJPLAJKENM3U6DS5ITRN6DVC8YZ6C","1",5,6,1,"50","<p style=""font-size:100px""><b>t</b></p><p style=""position: absolute; top: 30px; right: 30px; text-align:right; font-size:50px"""">N = 1</p>","t",0,NA,NA,0,"agree",14,4,15,15,20,"39","Female","Good and Quite interesting one","Strong Agreement","Strong Agreement","Strong Agreement","Moderate Agreement","Slight Agreement","Slight Disagreement","Very Strong Agreement","Neither Agreement nor Disagreement","Very Strong Agreement","Moderate Agreement","Very Strong Agreement","Very Strong Disagreement","Very Strong Agreement","Neither Agreement nor Disagreement","Moderate Agreement","Strong Agreement","Slight Disagreement","Neither Agreement nor Disagreement"
"91","A4FV7I32EYWZ7:3EJPLAJKENM3U6DS5ITRN6DVC8YZ6C","1",5,7,1,"50","<p style=""font-size:100px""><b>t</b></p><p style=""position: absolute; top: 30px; right: 30px; text-align:right; font-size:50px"""">N = 1</p>","t",0,73,780,1,"agree",14,4,15,15,20,"39","Female","Good and Quite interesting one","Strong Agreement","Strong Agreement","Strong Agreement","Moderate Agreement","Slight Agreement","Slight Disagreement","Very Strong Agreement","Neither Agreement nor Disagreement","Very Strong Agreement","Moderate Agreement","Very Strong Agreement","Very Strong Disagreement","Very Strong Agreement","Neither Agreement nor Disagreement","Moderate Agreement","Strong Agreement","Slight Disagreement","Neither Agreement nor Disagreement"
"92","A4FV7I32EYWZ7:3EJPLAJKENM3U6DS5ITRN6DVC8YZ6C","1",5,8,1,"50","<p style=""font-size:100px""><b>t</b></p><p style=""position: absolute; top: 30px; right: 30px; text-align:right; font-size:50px"""">N = 1</p>","t",0,73,841,1,"agree",14,4,15,15,20,"39","Female","Good and Quite interesting one","Strong Agreement","Strong Agreement","Strong Agreement","Moderate Agreement","Slight Agreement","Slight Disagreement","Very Strong Agreement","Neither Agreement nor Disagreement","Very Strong Agreement","Moderate Agreement","Very Strong Agreement","Very Strong Disagreement","Very Strong Agreement","Neither Agreement nor Disagreement","Moderate Agreement","Strong Agreement","Slight Disagreement","Neither Agreement nor Disagreement"
"93","A4FV7I32EYWZ7:3EJPLAJKENM3U6DS5ITRN6DVC8YZ6C","1",5,9,1,"50","<p style=""font-size:100px""><b>B</b></p><p style=""position: absolute; top: 30px; right: 30px; text-align:right; font-size:50px"""">N = 1</p>","B",0,69,796,0,"agree",14,4,15,15,20,"39","Female","Good and Quite interesting one","Strong Agreement","Strong Agreement","Strong Agreement","Moderate Agreement","Slight Agreement","Slight Disagreement","Very Strong Agreement","Neither Agreement nor Disagreement","Very Strong Agreement","Moderate Agreement","Very Strong Agreement","Very Strong Disagreement","Very Strong Agreement","Neither Agreement nor Disagreement","Moderate Agreement","Strong Agreement","Slight Disagreement","Neither Agreement nor Disagreement"
"94","A4FV7I32EYWZ7:3EJPLAJKENM3U6DS5ITRN6DVC8YZ6C","1",5,10,1,"50","<p style=""font-size:100px""><b>P</b></p><p style=""position: absolute; top: 30px; right: 30px; text-align:right; font-size:50px"""">N = 1</p>","P",0,NA,NA,0,"agree",14,4,15,15,20,"39","Female","Good and Quite interesting one","Strong Agreement","Strong Agreement","Strong Agreement","Moderate Agreement","Slight Agreement","Slight Disagreement","Very Strong Agreement","Neither Agreement nor Disagreement","Very Strong Agreement","Moderate Agreement","Very Strong Agreement","Very Strong Disagreement","Very Strong Agreement","Neither Agreement nor Disagreement","Moderate Agreement","Strong Agreement","Slight Disagreement","Neither Agreement nor Disagreement"
"95","A4FV7I32EYWZ7:3EJPLAJKENM3U6DS5ITRN6DVC8YZ6C","1",5,11,1,"50","<p style=""font-size:100px""><b>d</b></p><p style=""position: absolute; top: 30px; right: 30px; text-align:right; font-size:50px"""">N = 1</p>","d",0,69,965,0,"agree",14,4,15,15,20,"39","Female","Good and Quite interesting one","Strong Agreement","Strong Agreement","Strong Agreement","Moderate Agreement","Slight Agreement","Slight Disagreement","Very Strong Agreement","Neither Agreement nor Disagreement","Very Strong Agreement","Moderate Agreement","Very Strong Agreement","Very Strong Disagreement","Very Strong Agreement","Neither Agreement nor Disagreement","Moderate Agreement","Strong Agreement","Slight Disagreement","Neither Agreement nor Disagreement"
"96","A4FV7I32EYWZ7:3EJPLAJKENM3U6DS5ITRN6DVC8YZ6C","1",5,12,1,"50","<p style=""font-size:100px""><b>B</b></p><p style=""position: absolute; top: 30px; right: 30px; text-align:right; font-size:50px"""">N = 1</p>","B",0,69,799,0,"agree",14,4,15,15,20,"39","Female","Good and Quite interesting one","Strong Agreement","Strong Agreement","Strong Agreement","Moderate Agreement","Slight Agreement","Slight Disagreement","Very Strong Agreement","Neither Agreement nor Disagreement","Very Strong Agreement","Moderate Agreement","Very Strong Agreement","Very Strong Disagreement","Very Strong Agreement","Neither Agreement nor Disagreement","Moderate Agreement","Strong Agreement","Slight Disagreement","Neither Agreement nor Disagreement"
"97","A4FV7I32EYWZ7:3EJPLAJKENM3U6DS5ITRN6DVC8YZ6C","1",6,1,1,"50","<p style=""font-size:100px""><b>B</b></p><p style=""position: absolute; top: 30px; right: 30px; text-align:right; font-size:50px"""">N = 1</p>","B",0,73,712,1,"agree",18,2,14,17,19,"39","Female","Good and Quite interesting one","Strong Agreement","Strong Agreement","Strong Agreement","Moderate Agreement","Slight Agreement","Slight Disagreement","Very Strong Agreement","Neither Agreement nor Disagreement","Very Strong Agreement","Moderate Agreement","Very Strong Agreement","Very Strong Disagreement","Very Strong Agreement","Neither Agreement nor Disagreement","Moderate Agreement","Strong Agreement","Slight Disagreement","Neither Agreement nor Disagreement"
"98","A4FV7I32EYWZ7:3EJPLAJKENM3U6DS5ITRN6DVC8YZ6C","1",6,2,1,"50","<p style=""font-size:100px""><b>v</b></p><p style=""position: absolute; top: 30px; right: 30px; text-align:right; font-size:50px"""">N = 1</p>","v",0,73,868,1,"agree",18,2,14,17,19,"39","Female","Good and Quite interesting one","Strong Agreement","Strong Agreement","Strong Agreement","Moderate Agreement","Slight Agreement","Slight Disagreement","Very Strong Agreement","Neither Agreement nor Disagreement","Very Strong Agreement","Moderate Agreement","Very Strong Agreement","Very Strong Disagreement","Very Strong Agreement","Neither Agreement nor Disagreement","Moderate Agreement","Strong Agreement","Slight Disagreement","Neither Agreement nor Disagreement"
"99","A4FV7I32EYWZ7:3EJPLAJKENM3U6DS5ITRN6DVC8YZ6C","1",6,3,1,"50","<p style=""font-size:100px""><b>t</b></p><p style=""position: absolute; top: 30px; right: 30px; text-align:right; font-size:50px"""">N = 1</p>","t",0,NA,NA,0,"agree",18,2,14,17,19,"39","Female","Good and Quite interesting one","Strong Agreement","Strong Agreement","Strong Agreement","Moderate Agreement","Slight Agreement","Slight Disagreement","Very Strong Agreement","Neither Agreement nor Disagreement","Very Strong Agreement","Moderate Agreement","Very Strong Agreement","Very Strong Disagreement","Very Strong Agreement","Neither Agreement nor Disagreement","Moderate Agreement","Strong Agreement","Slight Disagreement","Neither Agreement nor Disagreement"
"100","A4FV7I32EYWZ7:3EJPLAJKENM3U6DS5ITRN6DVC8YZ6C","1",6,4,1,"50","<p style=""font-size:100px""><b>t</b></p><p style=""position: absolute; top: 30px; right: 30px; text-align:right; font-size:50px"""">N = 1</p>","t",0,69,878,0,"agree",18,2,14,17,19,"39","Female","Good and Quite interesting one","Strong Agreement","Strong Agreement","Strong Agreement","Moderate Agreement","Slight Agreement","Slight Disagreement","Very Strong Agreement","Neither Agreement nor Disagreement","Very Strong Agreement","Moderate Agreement","Very Strong Agreement","Very Strong Disagreement","Very Strong Agreement","Neither Agreement nor Disagreement","Moderate Agreement","Strong Agreement","Slight Disagreement","Neither Agreement nor Disagreement"
"101","A4FV7I32EYWZ7:3EJPLAJKENM3U6DS5ITRN6DVC8YZ6C","1",6,5,1,"50","<p style=""font-size:100px""><b>G</b></p><p style=""position: absolute; top: 30px; right: 30px; text-align:right; font-size:50px"""">N = 1</p>","G",0,NA,NA,0,"agree",18,2,14,17,19,"39","Female","Good and Quite interesting one","Strong Agreement","Strong Agreement","Strong Agreement","Moderate Agreement","Slight Agreement","Slight Disagreement","Very Strong Agreement","Neither Agreement nor Disagreement","Very Strong Agreement","Moderate Agreement","Very Strong Agreement","Very Strong Disagreement","Very Strong Agreement","Neither Agreement nor Disagreement","Moderate Agreement","Strong Agreement","Slight Disagreement","Neither Agreement nor Disagreement"
"102","A4FV7I32EYWZ7:3EJPLAJKENM3U6DS5ITRN6DVC8YZ6C","1",6,6,1,"50","<p style=""font-size:100px""><b>p</b></p><p style=""position: absolute; top: 30px; right: 30px; text-align:right; font-size:50px"""">N = 1</p>","p",0,69,800,0,"agree",18,2,14,17,19,"39","Female","Good and Quite interesting one","Strong Agreement","Strong Agreement","Strong Agreement","Moderate Agreement","Slight Agreement","Slight Disagreement","Very Strong Agreement","Neither Agreement nor Disagreement","Very Strong Agreement","Moderate Agreement","Very Strong Agreement","Very Strong Disagreement","Very Strong Agreement","Neither Agreement nor Disagreement","Moderate Agreement","Strong Agreement","Slight Disagreement","Neither Agreement nor Disagreement"
"103","A4FV7I32EYWZ7:3EJPLAJKENM3U6DS5ITRN6DVC8YZ6C","1",6,7,1,"50","<p style=""font-size:100px""><b>p</b></p><p style=""position: absolute; top: 30px; right: 30px; text-align:right; font-size:50px"""">N = 1</p>","p",0,NA,NA,0,"agree",18,2,14,17,19,"39","Female","Good and Quite interesting one","Strong Agreement","Strong Agreement","Strong Agreement","Moderate Agreement","Slight Agreement","Slight Disagreement","Very Strong Agreement","Neither Agreement nor Disagreement","Very Strong Agreement","Moderate Agreement","Very Strong Agreement","Very Strong Disagreement","Very Strong Agreement","Neither Agreement nor Disagreement","Moderate Agreement","Strong Agreement","Slight Disagreement","Neither Agreement nor Disagreement"
"104","A4FV7I32EYWZ7:3EJPLAJKENM3U6DS5ITRN6DVC8YZ6C","1",6,8,1,"50","<p style=""font-size:100px""><b>g</b></p><p style=""position: absolute; top: 30px; right: 30px; text-align:right; font-size:50px"""">N = 1</p>","g",0,NA,NA,0,"agree",18,2,14,17,19,"39","Female","Good and Quite interesting one","Strong Agreement","Strong Agreement","Strong Agreement","Moderate Agreement","Slight Agreement","Slight Disagreement","Very Strong Agreement","Neither Agreement nor Disagreement","Very Strong Agreement","Moderate Agreement","Very Strong Agreement","Very Strong Disagreement","Very Strong Agreement","Neither Agreement nor Disagreement","Moderate Agreement","Strong Agreement","Slight Disagreement","Neither Agreement nor Disagreement"
"105","A4FV7I32EYWZ7:3EJPLAJKENM3U6DS5ITRN6DVC8YZ6C","1",6,9,1,"50","<p style=""font-size:100px""><b>D</b></p><p style=""position: absolute; top: 30px; right: 30px; text-align:right; font-size:50px"""">N = 1</p>","D",0,69,866,0,"agree",18,2,14,17,19,"39","Female","Good and Quite interesting one","Strong Agreement","Strong Agreement","Strong Agreement","Moderate Agreement","Slight Agreement","Slight Disagreement","Very Strong Agreement","Neither Agreement nor Disagreement","Very Strong Agreement","Moderate Agreement","Very Strong Agreement","Very Strong Disagreement","Very Strong Agreement","Neither Agreement nor Disagreement","Moderate Agreement","Strong Agreement","Slight Disagreement","Neither Agreement nor Disagreement"
"106","A4FV7I32EYWZ7:3EJPLAJKENM3U6DS5ITRN6DVC8YZ6C","1",6,10,1,"50","<p style=""font-size:100px""><b>D</b></p><p style=""position: absolute; top: 30px; right: 30px; text-align:right; font-size:50px"""">N = 1</p>","D",0,69,547,0,"agree",18,2,14,17,19,"39","Female","Good and Quite interesting one","Strong Agreement","Strong Agreement","Strong Agreement","Moderate Agreement","Slight Agreement","Slight Disagreement","Very Strong Agreement","Neither Agreement nor Disagreement","Very Strong Agreement","Moderate Agreement","Very Strong Agreement","Very Strong Disagreement","Very Strong Agreement","Neither Agreement nor Disagreement","Moderate Agreement","Strong Agreement","Slight Disagreement","Neither Agreement nor Disagreement"
"107","A4FV7I32EYWZ7:3EJPLAJKENM3U6DS5ITRN6DVC8YZ6C","1",6,11,1,"50","<p style=""font-size:100px""><b>D</b></p><p style=""position: absolute; top: 30px; right: 30px; text-align:right; font-size:50px"""">N = 1</p>","D",0,69,636,0,"agree",18,2,14,17,19,"39","Female","Good and Quite interesting one","Strong Agreement","Strong Agreement","Strong Agreement","Moderate Agreement","Slight Agreement","Slight Disagreement","Very Strong Agreement","Neither Agreement nor Disagreement","Very Strong Agreement","Moderate Agreement","Very Strong Agreement","Very Strong Disagreement","Very Strong Agreement","Neither Agreement nor Disagreement","Moderate Agreement","Strong Agreement","Slight Disagreement","Neither Agreement nor Disagreement"
"108","A4FV7I32EYWZ7:3EJPLAJKENM3U6DS5ITRN6DVC8YZ6C","1",6,12,1,"50","<p style=""font-size:100px""><b>T</b></p><p style=""position: absolute; top: 30px; right: 30px; text-align:right; font-size:50px"""">N = 1</p>","T",0,73,945,1,"agree",18,2,14,17,19,"39","Female","Good and Quite interesting one","Strong Agreement","Strong Agreement","Strong Agreement","Moderate Agreement","Slight Agreement","Slight Disagreement","Very Strong Agreement","Neither Agreement nor Disagreement","Very Strong Agreement","Moderate Agreement","Very Strong Agreement","Very Strong Disagreement","Very Strong Agreement","Neither Agreement nor Disagreement","Moderate Agreement","Strong Agreement","Slight Disagreement","Neither Agreement nor Disagreement"
"109","A4FV7I32EYWZ7:3EJPLAJKENM3U6DS5ITRN6DVC8YZ6C","2",7,1,3,"50","<p style=""font-size:100px""><b>T</b></p><p style=""position: absolute; top: 30px; right: 30px; text-align:right; font-size:50px"""">N = 3</p>","T",0,NA,NA,0,"agree",18,8,21,17,21,"39","Female","Good and Quite interesting one","Strong Agreement","Strong Agreement","Strong Agreement","Moderate Agreement","Slight Agreement","Slight Disagreement","Very Strong Agreement","Neither Agreement nor Disagreement","Very Strong Agreement","Moderate Agreement","Very Strong Agreement","Very Strong Disagreement","Very Strong Agreement","Neither Agreement nor Disagreement","Moderate Agreement","Strong Agreement","Slight Disagreement","Neither Agreement nor Disagreement"
"110","A4FV7I32EYWZ7:3EJPLAJKENM3U6DS5ITRN6DVC8YZ6C","2",7,2,3,"50","<p style=""font-size:100px""><b>g</b></p><p style=""position: absolute; top: 30px; right: 30px; text-align:right; font-size:50px"""">N = 3</p>","g",0,73,761,1,"agree",18,8,21,17,21,"39","Female","Good and Quite interesting one","Strong Agreement","Strong Agreement","Strong Agreement","Moderate Agreement","Slight Agreement","Slight Disagreement","Very Strong Agreement","Neither Agreement nor Disagreement","Very Strong Agreement","Moderate Agreement","Very Strong Agreement","Very Strong Disagreement","Very Strong Agreement","Neither Agreement nor Disagreement","Moderate Agreement","Strong Agreement","Slight Disagreement","Neither Agreement nor Disagreement"
"111","A4FV7I32EYWZ7:3EJPLAJKENM3U6DS5ITRN6DVC8YZ6C","2",7,3,3,"50","<p style=""font-size:100px""><b>V</b></p><p style=""position: absolute; top: 30px; right: 30px; text-align:right; font-size:50px"""">N = 3</p>","V",0,73,898,1,"agree",18,8,21,17,21,"39","Female","Good and Quite interesting one","Strong Agreement","Strong Agreement","Strong Agreement","Moderate Agreement","Slight Agreement","Slight Disagreement","Very Strong Agreement","Neither Agreement nor Disagreement","Very Strong Agreement","Moderate Agreement","Very Strong Agreement","Very Strong Disagreement","Very Strong Agreement","Neither Agreement nor Disagreement","Moderate Agreement","Strong Agreement","Slight Disagreement","Neither Agreement nor Disagreement"
"112","A4FV7I32EYWZ7:3EJPLAJKENM3U6DS5ITRN6DVC8YZ6C","2",7,4,3,"50","<p style=""font-size:100px""><b>v</b></p><p style=""position: absolute; top: 30px; right: 30px; text-align:right; font-size:50px"""">N = 3</p>","v",0,69,979,0,"agree",18,8,21,17,21,"39","Female","Good and Quite interesting one","Strong Agreement","Strong Agreement","Strong Agreement","Moderate Agreement","Slight Agreement","Slight Disagreement","Very Strong Agreement","Neither Agreement nor Disagreement","Very Strong Agreement","Moderate Agreement","Very Strong Agreement","Very Strong Disagreement","Very Strong Agreement","Neither Agreement nor Disagreement","Moderate Agreement","Strong Agreement","Slight Disagreement","Neither Agreement nor Disagreement"
"113","A4FV7I32EYWZ7:3EJPLAJKENM3U6DS5ITRN6DVC8YZ6C","2",7,5,3,"50","<p style=""font-size:100px""><b>V</b></p><p style=""position: absolute; top: 30px; right: 30px; text-align:right; font-size:50px"""">N = 3</p>","V",0,69,979,0,"agree",18,8,21,17,21,"39","Female","Good and Quite interesting one","Strong Agreement","Strong Agreement","Strong Agreement","Moderate Agreement","Slight Agreement","Slight Disagreement","Very Strong Agreement","Neither Agreement nor Disagreement","Very Strong Agreement","Moderate Agreement","Very Strong Agreement","Very Strong Disagreement","Very Strong Agreement","Neither Agreement nor Disagreement","Moderate Agreement","Strong Agreement","Slight Disagreement","Neither Agreement nor Disagreement"
"114","A4FV7I32EYWZ7:3EJPLAJKENM3U6DS5ITRN6DVC8YZ6C","2",7,6,3,"50","<p style=""font-size:100px""><b>V</b></p><p style=""position: absolute; top: 30px; right: 30px; text-align:right; font-size:50px"""">N = 3</p>","V",0,69,828,0,"agree",18,8,21,17,21,"39","Female","Good and Quite interesting one","Strong Agreement","Strong Agreement","Strong Agreement","Moderate Agreement","Slight Agreement","Slight Disagreement","Very Strong Agreement","Neither Agreement nor Disagreement","Very Strong Agreement","Moderate Agreement","Very Strong Agreement","Very Strong Disagreement","Very Strong Agreement","Neither Agreement nor Disagreement","Moderate Agreement","Strong Agreement","Slight Disagreement","Neither Agreement nor Disagreement"
"115","A4FV7I32EYWZ7:3EJPLAJKENM3U6DS5ITRN6DVC8YZ6C","2",7,7,3,"50","<p style=""font-size:100px""><b>G</b></p><p style=""position: absolute; top: 30px; right: 30px; text-align:right; font-size:50px"""">N = 3</p>","G",0,69,973,0,"agree",18,8,21,17,21,"39","Female","Good and Quite interesting one","Strong Agreement","Strong Agreement","Strong Agreement","Moderate Agreement","Slight Agreement","Slight Disagreement","Very Strong Agreement","Neither Agreement nor Disagreement","Very Strong Agreement","Moderate Agreement","Very Strong Agreement","Very Strong Disagreement","Very Strong Agreement","Neither Agreement nor Disagreement","Moderate Agreement","Strong Agreement","Slight Disagreement","Neither Agreement nor Disagreement"
"116","A4FV7I32EYWZ7:3EJPLAJKENM3U6DS5ITRN6DVC8YZ6C","2",7,8,3,"50","<p style=""font-size:100px""><b>t</b></p><p style=""position: absolute; top: 30px; right: 30px; text-align:right; font-size:50px"""">N = 3</p>","t",0,NA,NA,0,"agree",18,8,21,17,21,"39","Female","Good and Quite interesting one","Strong Agreement","Strong Agreement","Strong Agreement","Moderate Agreement","Slight Agreement","Slight Disagreement","Very Strong Agreement","Neither Agreement nor Disagreement","Very Strong Agreement","Moderate Agreement","Very Strong Agreement","Very Strong Disagreement","Very Strong Agreement","Neither Agreement nor Disagreement","Moderate Agreement","Strong Agreement","Slight Disagreement","Neither Agreement nor Disagreement"
"117","A4FV7I32EYWZ7:3EJPLAJKENM3U6DS5ITRN6DVC8YZ6C","2",7,9,3,"50","<p style=""font-size:100px""><b>V</b></p><p style=""position: absolute; top: 30px; right: 30px; text-align:right; font-size:50px"""">N = 3</p>","V",0,69,707,0,"agree",18,8,21,17,21,"39","Female","Good and Quite interesting one","Strong Agreement","Strong Agreement","Strong Agreement","Moderate Agreement","Slight Agreement","Slight Disagreement","Very Strong Agreement","Neither Agreement nor Disagreement","Very Strong Agreement","Moderate Agreement","Very Strong Agreement","Very Strong Disagreement","Very Strong Agreement","Neither Agreement nor Disagreement","Moderate Agreement","Strong Agreement","Slight Disagreement","Neither Agreement nor Disagreement"
"118","A4FV7I32EYWZ7:3EJPLAJKENM3U6DS5ITRN6DVC8YZ6C","2",7,10,3,"50","<p style=""font-size:100px""><b>G</b></p><p style=""position: absolute; top: 30px; right: 30px; text-align:right; font-size:50px"""">N = 3</p>","G",0,69,975,0,"agree",18,8,21,17,21,"39","Female","Good and Quite interesting one","Strong Agreement","Strong Agreement","Strong Agreement","Moderate Agreement","Slight Agreement","Slight Disagreement","Very Strong Agreement","Neither Agreement nor Disagreement","Very Strong Agreement","Moderate Agreement","Very Strong Agreement","Very Strong Disagreement","Very Strong Agreement","Neither Agreement nor Disagreement","Moderate Agreement","Strong Agreement","Slight Disagreement","Neither Agreement nor Disagreement"
"119","A4FV7I32EYWZ7:3EJPLAJKENM3U6DS5ITRN6DVC8YZ6C","2",7,11,3,"50","<p style=""font-size:100px""><b>B</b></p><p style=""position: absolute; top: 30px; right: 30px; text-align:right; font-size:50px"""">N = 3</p>","B",0,69,852,0,"agree",18,8,21,17,21,"39","Female","Good and Quite interesting one","Strong Agreement","Strong Agreement","Strong Agreement","Moderate Agreement","Slight Agreement","Slight Disagreement","Very Strong Agreement","Neither Agreement nor Disagreement","Very Strong Agreement","Moderate Agreement","Very Strong Agreement","Very Strong Disagreement","Very Strong Agreement","Neither Agreement nor Disagreement","Moderate Agreement","Strong Agreement","Slight Disagreement","Neither Agreement nor Disagreement"
"120","A4FV7I32EYWZ7:3EJPLAJKENM3U6DS5ITRN6DVC8YZ6C","2",7,12,3,"50","<p style=""font-size:100px""><b>V</b></p><p style=""position: absolute; top: 30px; right: 30px; text-align:right; font-size:50px"""">N = 3</p>","V",0,69,880,0,"agree",18,8,21,17,21,"39","Female","Good and Quite interesting one","Strong Agreement","Strong Agreement","Strong Agreement","Moderate Agreement","Slight Agreement","Slight Disagreement","Very Strong Agreement","Neither Agreement nor Disagreement","Very Strong Agreement","Moderate Agreement","Very Strong Agreement","Very Strong Disagreement","Very Strong Agreement","Neither Agreement nor Disagreement","Moderate Agreement","Strong Agreement","Slight Disagreement","Neither Agreement nor Disagreement"
"121","A4FV7I32EYWZ7:3EJPLAJKENM3U6DS5ITRN6DVC8YZ6C","2",8,1,3,"5","<p style=""font-size:100px""><b>D</b></p><p style=""position: absolute; top: 30px; right: 30px; text-align:right; font-size:50px"""">N = 3</p>","D",0,73,766,1,"agree",19,2,17,21,21,"39","Female","Good and Quite interesting one","Strong Agreement","Strong Agreement","Strong Agreement","Moderate Agreement","Slight Agreement","Slight Disagreement","Very Strong Agreement","Neither Agreement nor Disagreement","Very Strong Agreement","Moderate Agreement","Very Strong Agreement","Very Strong Disagreement","Very Strong Agreement","Neither Agreement nor Disagreement","Moderate Agreement","Strong Agreement","Slight Disagreement","Neither Agreement nor Disagreement"
"122","A4FV7I32EYWZ7:3EJPLAJKENM3U6DS5ITRN6DVC8YZ6C","2",8,2,3,"5","<p style=""font-size:100px""><b>P</b></p><p style=""position: absolute; top: 30px; right: 30px; text-align:right; font-size:50px"""">N = 3</p>","P",0,73,926,1,"agree",19,2,17,21,21,"39","Female","Good and Quite interesting one","Strong Agreement","Strong Agreement","Strong Agreement","Moderate Agreement","Slight Agreement","Slight Disagreement","Very Strong Agreement","Neither Agreement nor Disagreement","Very Strong Agreement","Moderate Agreement","Very Strong Agreement","Very Strong Disagreement","Very Strong Agreement","Neither Agreement nor Disagreement","Moderate Agreement","Strong Agreement","Slight Disagreement","Neither Agreement nor Disagreement"
"123","A4FV7I32EYWZ7:3EJPLAJKENM3U6DS5ITRN6DVC8YZ6C","2",8,3,3,"5","<p style=""font-size:100px""><b>V</b></p><p style=""position: absolute; top: 30px; right: 30px; text-align:right; font-size:50px"""">N = 3</p>","V",0,73,974,1,"agree",19,2,17,21,21,"39","Female","Good and Quite interesting one","Strong Agreement","Strong Agreement","Strong Agreement","Moderate Agreement","Slight Agreement","Slight Disagreement","Very Strong Agreement","Neither Agreement nor Disagreement","Very Strong Agreement","Moderate Agreement","Very Strong Agreement","Very Strong Disagreement","Very Strong Agreement","Neither Agreement nor Disagreement","Moderate Agreement","Strong Agreement","Slight Disagreement","Neither Agreement nor Disagreement"
"124","A4FV7I32EYWZ7:3EJPLAJKENM3U6DS5ITRN6DVC8YZ6C","2",8,4,3,"5","<p style=""font-size:100px""><b>V</b></p><p style=""position: absolute; top: 30px; right: 30px; text-align:right; font-size:50px"""">N = 3</p>","V",0,69,791,0,"agree",19,2,17,21,21,"39","Female","Good and Quite interesting one","Strong Agreement","Strong Agreement","Strong Agreement","Moderate Agreement","Slight Agreement","Slight Disagreement","Very Strong Agreement","Neither Agreement nor Disagreement","Very Strong Agreement","Moderate Agreement","Very Strong Agreement","Very Strong Disagreement","Very Strong Agreement","Neither Agreement nor Disagreement","Moderate Agreement","Strong Agreement","Slight Disagreement","Neither Agreement nor Disagreement"
"125","A4FV7I32EYWZ7:3EJPLAJKENM3U6DS5ITRN6DVC8YZ6C","2",8,5,3,"5","<p style=""font-size:100px""><b>P</b></p><p style=""position: absolute; top: 30px; right: 30px; text-align:right; font-size:50px"""">N = 3</p>","P",0,69,970,0,"agree",19,2,17,21,21,"39","Female","Good and Quite interesting one","Strong Agreement","Strong Agreement","Strong Agreement","Moderate Agreement","Slight Agreement","Slight Disagreement","Very Strong Agreement","Neither Agreement nor Disagreement","Very Strong Agreement","Moderate Agreement","Very Strong Agreement","Very Strong Disagreement","Very Strong Agreement","Neither Agreement nor Disagreement","Moderate Agreement","Strong Agreement","Slight Disagreement","Neither Agreement nor Disagreement"
"126","A4FV7I32EYWZ7:3EJPLAJKENM3U6DS5ITRN6DVC8YZ6C","2",8,6,3,"5","<p style=""font-size:100px""><b>V</b></p><p style=""position: absolute; top: 30px; right: 30px; text-align:right; font-size:50px"""">N = 3</p>","V",0,69,715,0,"agree",19,2,17,21,21,"39","Female","Good and Quite interesting one","Strong Agreement","Strong Agreement","Strong Agreement","Moderate Agreement","Slight Agreement","Slight Disagreement","Very Strong Agreement","Neither Agreement nor Disagreement","Very Strong Agreement","Moderate Agreement","Very Strong Agreement","Very Strong Disagreement","Very Strong Agreement","Neither Agreement nor Disagreement","Moderate Agreement","Strong Agreement","Slight Disagreement","Neither Agreement nor Disagreement"
"127","A4FV7I32EYWZ7:3EJPLAJKENM3U6DS5ITRN6DVC8YZ6C","2",8,7,3,"5","<p style=""font-size:100px""><b>V</b></p><p style=""position: absolute; top: 30px; right: 30px; text-align:right; font-size:50px"""">N = 3</p>","V",0,69,555,0,"agree",19,2,17,21,21,"39","Female","Good and Quite interesting one","Strong Agreement","Strong Agreement","Strong Agreement","Moderate Agreement","Slight Agreement","Slight Disagreement","Very Strong Agreement","Neither Agreement nor Disagreement","Very Strong Agreement","Moderate Agreement","Very Strong Agreement","Very Strong Disagreement","Very Strong Agreement","Neither Agreement nor Disagreement","Moderate Agreement","Strong Agreement","Slight Disagreement","Neither Agreement nor Disagreement"
"128","A4FV7I32EYWZ7:3EJPLAJKENM3U6DS5ITRN6DVC8YZ6C","2",8,8,3,"5","<p style=""font-size:100px""><b>B</b></p><p style=""position: absolute; top: 30px; right: 30px; text-align:right; font-size:50px"""">N = 3</p>","B",0,NA,NA,0,"agree",19,2,17,21,21,"39","Female","Good and Quite interesting one","Strong Agreement","Strong Agreement","Strong Agreement","Moderate Agreement","Slight Agreement","Slight Disagreement","Very Strong Agreement","Neither Agreement nor Disagreement","Very Strong Agreement","Moderate Agreement","Very Strong Agreement","Very Strong Disagreement","Very Strong Agreement","Neither Agreement nor Disagreement","Moderate Agreement","Strong Agreement","Slight Disagreement","Neither Agreement nor Disagreement"
"129","A4FV7I32EYWZ7:3EJPLAJKENM3U6DS5ITRN6DVC8YZ6C","2",8,9,3,"5","<p style=""font-size:100px""><b>G</b></p><p style=""position: absolute; top: 30px; right: 30px; text-align:right; font-size:50px"""">N = 3</p>","G",0,69,884,0,"agree",19,2,17,21,21,"39","Female","Good and Quite interesting one","Strong Agreement","Strong Agreement","Strong Agreement","Moderate Agreement","Slight Agreement","Slight Disagreement","Very Strong Agreement","Neither Agreement nor Disagreement","Very Strong Agreement","Moderate Agreement","Very Strong Agreement","Very Strong Disagreement","Very Strong Agreement","Neither Agreement nor Disagreement","Moderate Agreement","Strong Agreement","Slight Disagreement","Neither Agreement nor Disagreement"
"130","A4FV7I32EYWZ7:3EJPLAJKENM3U6DS5ITRN6DVC8YZ6C","2",8,10,3,"5","<p style=""font-size:100px""><b>d</b></p><p style=""position: absolute; top: 30px; right: 30px; text-align:right; font-size:50px"""">N = 3</p>","d",0,73,883,1,"agree",19,2,17,21,21,"39","Female","Good and Quite interesting one","Strong Agreement","Strong Agreement","Strong Agreement","Moderate Agreement","Slight Agreement","Slight Disagreement","Very Strong Agreement","Neither Agreement nor Disagreement","Very Strong Agreement","Moderate Agreement","Very Strong Agreement","Very Strong Disagreement","Very Strong Agreement","Neither Agreement nor Disagreement","Moderate Agreement","Strong Agreement","Slight Disagreement","Neither Agreement nor Disagreement"
"131","A4FV7I32EYWZ7:3EJPLAJKENM3U6DS5ITRN6DVC8YZ6C","2",8,11,3,"5","<p style=""font-size:100px""><b>P</b></p><p style=""position: absolute; top: 30px; right: 30px; text-align:right; font-size:50px"""">N = 3</p>","P",0,69,742,0,"agree",19,2,17,21,21,"39","Female","Good and Quite interesting one","Strong Agreement","Strong Agreement","Strong Agreement","Moderate Agreement","Slight Agreement","Slight Disagreement","Very Strong Agreement","Neither Agreement nor Disagreement","Very Strong Agreement","Moderate Agreement","Very Strong Agreement","Very Strong Disagreement","Very Strong Agreement","Neither Agreement nor Disagreement","Moderate Agreement","Strong Agreement","Slight Disagreement","Neither Agreement nor Disagreement"
"132","A4FV7I32EYWZ7:3EJPLAJKENM3U6DS5ITRN6DVC8YZ6C","2",8,12,3,"5","<p style=""font-size:100px""><b>G</b></p><p style=""position: absolute; top: 30px; right: 30px; text-align:right; font-size:50px"""">N = 3</p>","G",0,NA,NA,0,"agree",19,2,17,21,21,"39","Female","Good and Quite interesting one","Strong Agreement","Strong Agreement","Strong Agreement","Moderate Agreement","Slight Agreement","Slight Disagreement","Very Strong Agreement","Neither Agreement nor Disagreement","Very Strong Agreement","Moderate Agreement","Very Strong Agreement","Very Strong Disagreement","Very Strong Agreement","Neither Agreement nor Disagreement","Moderate Agreement","Strong Agreement","Slight Disagreement","Neither Agreement nor Disagreement"
"133","A4FV7I32EYWZ7:3EJPLAJKENM3U6DS5ITRN6DVC8YZ6C","2",9,1,2,"5","<p style=""font-size:100px""><b>b</b></p><p style=""position: absolute; top: 30px; right: 30px; text-align:right; font-size:50px"""">N = 2</p>","b",0,NA,NA,0,"agree",20,2,21,21,18,"39","Female","Good and Quite interesting one","Strong Agreement","Strong Agreement","Strong Agreement","Moderate Agreement","Slight Agreement","Slight Disagreement","Very Strong Agreement","Neither Agreement nor Disagreement","Very Strong Agreement","Moderate Agreement","Very Strong Agreement","Very Strong Disagreement","Very Strong Agreement","Neither Agreement nor Disagreement","Moderate Agreement","Strong Agreement","Slight Disagreement","Neither Agreement nor Disagreement"
"134","A4FV7I32EYWZ7:3EJPLAJKENM3U6DS5ITRN6DVC8YZ6C","2",9,2,2,"5","<p style=""font-size:100px""><b>T</b></p><p style=""position: absolute; top: 30px; right: 30px; text-align:right; font-size:50px"""">N = 2</p>","T",0,73,812,1,"agree",20,2,21,21,18,"39","Female","Good and Quite interesting one","Strong Agreement","Strong Agreement","Strong Agreement","Moderate Agreement","Slight Agreement","Slight Disagreement","Very Strong Agreement","Neither Agreement nor Disagreement","Very Strong Agreement","Moderate Agreement","Very Strong Agreement","Very Strong Disagreement","Very Strong Agreement","Neither Agreement nor Disagreement","Moderate Agreement","Strong Agreement","Slight Disagreement","Neither Agreement nor Disagreement"
"135","A4FV7I32EYWZ7:3EJPLAJKENM3U6DS5ITRN6DVC8YZ6C","2",9,3,2,"5","<p style=""font-size:100px""><b>b</b></p><p style=""position: absolute; top: 30px; right: 30px; text-align:right; font-size:50px"""">N = 2</p>","b",0,69,909,0,"agree",20,2,21,21,18,"39","Female","Good and Quite interesting one","Strong Agreement","Strong Agreement","Strong Agreement","Moderate Agreement","Slight Agreement","Slight Disagreement","Very Strong Agreement","Neither Agreement nor Disagreement","Very Strong Agreement","Moderate Agreement","Very Strong Agreement","Very Strong Disagreement","Very Strong Agreement","Neither Agreement nor Disagreement","Moderate Agreement","Strong Agreement","Slight Disagreement","Neither Agreement nor Disagreement"
