"","subject","run","block","trial","N","reward","stimulus","cue","isTarget","key_press","rt","acc","debrief","performance","frustration","demand","temporal","effort","age","gender","comments","nfc1","nfc2","nfc3","nfc4","nfc5","nfc6","nfc7","nfc8","nfc9","nfc10","nfc11","nfc12","nfc13","nfc14","nfc15","nfc16","nfc17","nfc18"
"1","A3CWM1AYGCWFX:3JRJSWSMQIR6MSZEQTHGVT0TEAR3E6","practice",1,1,1,"NA","<p style=""font-size:100px""><b>d</b></p><p style=""position: absolute; top: 30px; right: 30px; text-align:right; font-size:50px"""">N = 1</p>","d",0,69,51,0,"agree",18,17,20,19,18,"1980","male","good","Strong Agreement","Moderate Agreement","Strong Agreement","Moderate Agreement","Strong Agreement","Strong Agreement","Very Strong Agreement","Strong Agreement","Very Strong Agreement","Very Strong Agreement","Strong Agreement","Strong Agreement","Strong Agreement","Strong Agreement","Strong Agreement","Very Strong Agreement","Strong Agreement","Moderate Agreement"
"2","A3CWM1AYGCWFX:3JRJSWSMQIR6MSZEQTHGVT0TEAR3E6","practice",1,2,1,"NA","<p style=""font-size:100px""><b>B</b></p><p style=""position: absolute; top: 30px; right: 30px; text-align:right; font-size:50px"""">N = 1</p>","B",0,69,413,0,"agree",18,17,20,19,18,"1980","male","good","Strong Agreement","Moderate Agreement","Strong Agreement","Moderate Agreement","Strong Agreement","Strong Agreement","Very Strong Agreement","Strong Agreement","Very Strong Agreement","Very Strong Agreement","Strong Agreement","Strong Agreement","Strong Agreement","Strong Agreement","Strong Agreement","Very Strong Agreement","Strong Agreement","Moderate Agreement"
"3","A3CWM1AYGCWFX:3JRJSWSMQIR6MSZEQTHGVT0TEAR3E6","practice",1,3,1,"NA","<p style=""font-size:100px""><b>B</b></p><p style=""position: absolute; top: 30px; right: 30px; text-align:right; font-size:50px"""">N = 1</p>","B",1,69,54,1,"agree",18,17,20,19,18,"1980","male","good","Strong Agreement","Moderate Agreement","Strong Agreement","Moderate Agreement","Strong Agreement","Strong Agreement","Very Strong Agreement","Strong Agreement","Very Strong Agreement","Very Strong Agreement","Strong Agreement","Strong Agreement","Strong Agreement","Strong Agreement","Strong Agreement","Very Strong Agreement","Strong Agreement","Moderate Agreement"
"4","A3CWM1AYGCWFX:3JRJSWSMQIR6MSZEQTHGVT0TEAR3E6","practice",1,4,1,"NA","<p style=""font-size:100px""><b>P</b></p><p style=""position: absolute; top: 30px; right: 30px; text-align:right; font-size:50px"""">N = 1</p>","P",0,69,2229,0,"agree",18,17,20,19,18,"1980","male","good","Strong Agreement","Moderate Agreement","Strong Agreement","Moderate Agreement","Strong Agreement","Strong Agreement","Very Strong Agreement","Strong Agreement","Very Strong Agreement","Very Strong Agreement","Strong Agreement","Strong Agreement","Strong Agreement","Strong Agreement","Strong Agreement","Very Strong Agreement","Strong Agreement","Moderate Agreement"
"5","A3CWM1AYGCWFX:3JRJSWSMQIR6MSZEQTHGVT0TEAR3E6","practice",1,5,1,"NA","<p style=""font-size:100px""><b>B</b></p><p style=""position: absolute; top: 30px; right: 30px; text-align:right; font-size:50px"""">N = 1</p>","B",0,69,1878,0,"agree",18,17,20,19,18,"1980","male","good","Strong Agreement","Moderate Agreement","Strong Agreement","Moderate Agreement","Strong Agreement","Strong Agreement","Very Strong Agreement","Strong Agreement","Very Strong Agreement","Very Strong Agreement","Strong Agreement","Strong Agreement","Strong Agreement","Strong Agreement","Strong Agreement","Very Strong Agreement","Strong Agreement","Moderate Agreement"
"6","A3CWM1AYGCWFX:3JRJSWSMQIR6MSZEQTHGVT0TEAR3E6","practice",1,6,1,"NA","<p style=""font-size:100px""><b>B</b></p><p style=""position: absolute; top: 30px; right: 30px; text-align:right; font-size:50px"""">N = 1</p>","B",1,69,128,1,"agree",18,17,20,19,18,"1980","male","good","Strong Agreement","Moderate Agreement","Strong Agreement","Moderate Agreement","Strong Agreement","Strong Agreement","Very Strong Agreement","Strong Agreement","Very Strong Agreement","Very Strong Agreement","Strong Agreement","Strong Agreement","Strong Agreement","Strong Agreement","Strong Agreement","Very Strong Agreement","Strong Agreement","Moderate Agreement"
"7","A3CWM1AYGCWFX:3JRJSWSMQIR6MSZEQTHGVT0TEAR3E6","practice",1,7,1,"NA","<p style=""font-size:100px""><b>p</b></p><p style=""position: absolute; top: 30px; right: 30px; text-align:right; font-size:50px"""">N = 1</p>","p",0,69,376,0,"agree",18,17,20,19,18,"1980","male","good","Strong Agreement","Moderate Agreement","Strong Agreement","Moderate Agreement","Strong Agreement","Strong Agreement","Very Strong Agreement","Strong Agreement","Very Strong Agreement","Very Strong Agreement","Strong Agreement","Strong Agreement","Strong Agreement","Strong Agreement","Strong Agreement","Very Strong Agreement","Strong Agreement","Moderate Agreement"
"8","A3CWM1AYGCWFX:3JRJSWSMQIR6MSZEQTHGVT0TEAR3E6","practice",1,8,1,"NA","<p style=""font-size:100px""><b>T</b></p><p style=""position: absolute; top: 30px; right: 30px; text-align:right; font-size:50px"""">N = 1</p>","T",0,69,459,0,"agree",18,17,20,19,18,"1980","male","good","Strong Agreement","Moderate Agreement","Strong Agreement","Moderate Agreement","Strong Agreement","Strong Agreement","Very Strong Agreement","Strong Agreement","Very Strong Agreement","Very Strong Agreement","Strong Agreement","Strong Agreement","Strong Agreement","Strong Agreement","Strong Agreement","Very Strong Agreement","Strong Agreement","Moderate Agreement"
"9","A3CWM1AYGCWFX:3JRJSWSMQIR6MSZEQTHGVT0TEAR3E6","practice",1,9,1,"NA","<p style=""font-size:100px""><b>b</b></p><p style=""position: absolute; top: 30px; right: 30px; text-align:right; font-size:50px"""">N = 1</p>","b",0,69,876,0,"agree",18,17,20,19,18,"1980","male","good","Strong Agreement","Moderate Agreement","Strong Agreement","Moderate Agreement","Strong Agreement","Strong Agreement","Very Strong Agreement","Strong Agreement","Very Strong Agreement","Very Strong Agreement","Strong Agreement","Strong Agreement","Strong Agreement","Strong Agreement","Strong Agreement","Very Strong Agreement","Strong Agreement","Moderate Agreement"
"10","A3CWM1AYGCWFX:3JRJSWSMQIR6MSZEQTHGVT0TEAR3E6","practice",1,10,1,"NA","<p style=""font-size:100px""><b>b</b></p><p style=""position: absolute; top: 30px; right: 30px; text-align:right; font-size:50px"""">N = 1</p>","b",1,69,1986,1,"agree",18,17,20,19,18,"1980","male","good","Strong Agreement","Moderate Agreement","Strong Agreement","Moderate Agreement","Strong Agreement","Strong Agreement","Very Strong Agreement","Strong Agreement","Very Strong Agreement","Very Strong Agreement","Strong Agreement","Strong Agreement","Strong Agreement","Strong Agreement","Strong Agreement","Very Strong Agreement","Strong Agreement","Moderate Agreement"
"11","A3CWM1AYGCWFX:3JRJSWSMQIR6MSZEQTHGVT0TEAR3E6","practice",1,11,1,"NA","<p style=""font-size:100px""><b>T</b></p><p style=""position: absolute; top: 30px; right: 30px; text-align:right; font-size:50px"""">N = 1</p>","T",0,69,29,0,"agree",18,17,20,19,18,"1980","male","good","Strong Agreement","Moderate Agreement","Strong Agreement","Moderate Agreement","Strong Agreement","Strong Agreement","Very Strong Agreement","Strong Agreement","Very Strong Agreement","Very Strong Agreement","Strong Agreement","Strong Agreement","Strong Agreement","Strong Agreement","Strong Agreement","Very Strong Agreement","Strong Agreement","Moderate Agreement"
"12","A3CWM1AYGCWFX:3JRJSWSMQIR6MSZEQTHGVT0TEAR3E6","practice",1,12,1,"NA","<p style=""font-size:100px""><b>T</b></p><p style=""position: absolute; top: 30px; right: 30px; text-align:right; font-size:50px"""">N = 1</p>","T",1,69,68118,1,"agree",18,17,20,19,18,"1980","male","good","Strong Agreement","Moderate Agreement","Strong Agreement","Moderate Agreement","Strong Agreement","Strong Agreement","Very Strong Agreement","Strong Agreement","Very Strong Agreement","Very Strong Agreement","Strong Agreement","Strong Agreement","Strong Agreement","Strong Agreement","Strong Agreement","Very Strong Agreement","Strong Agreement","Moderate Agreement"
"13","A3CWM1AYGCWFX:3JRJSWSMQIR6MSZEQTHGVT0TEAR3E6","practice",2,1,2,"NA","<p style=""font-size:100px""><b>G</b></p><p style=""position: absolute; top: 30px; right: 30px; text-align:right; font-size:50px"""">N = 2</p>","G",0,69,2800,0,"agree",18,17,20,19,18,"1980","male","good","Strong Agreement","Moderate Agreement","Strong Agreement","Moderate Agreement","Strong Agreement","Strong Agreement","Very Strong Agreement","Strong Agreement","Very Strong Agreement","Very Strong Agreement","Strong Agreement","Strong Agreement","Strong Agreement","Strong Agreement","Strong Agreement","Very Strong Agreement","Strong Agreement","Moderate Agreement"
"14","A3CWM1AYGCWFX:3JRJSWSMQIR6MSZEQTHGVT0TEAR3E6","practice",2,2,2,"NA","<p style=""font-size:100px""><b>B</b></p><p style=""position: absolute; top: 30px; right: 30px; text-align:right; font-size:50px"""">N = 2</p>","B",0,69,3728,0,"agree",18,17,20,19,18,"1980","male","good","Strong Agreement","Moderate Agreement","Strong Agreement","Moderate Agreement","Strong Agreement","Strong Agreement","Very Strong Agreement","Strong Agreement","Very Strong Agreement","Very Strong Agreement","Strong Agreement","Strong Agreement","Strong Agreement","Strong Agreement","Strong Agreement","Very Strong Agreement","Strong Agreement","Moderate Agreement"
"15","A3CWM1AYGCWFX:3JRJSWSMQIR6MSZEQTHGVT0TEAR3E6","practice",2,3,2,"NA","<p style=""font-size:100px""><b>G</b></p><p style=""position: absolute; top: 30px; right: 30px; text-align:right; font-size:50px"""">N = 2</p>","G",1,69,13,1,"agree",18,17,20,19,18,"1980","male","good","Strong Agreement","Moderate Agreement","Strong Agreement","Moderate Agreement","Strong Agreement","Strong Agreement","Very Strong Agreement","Strong Agreement","Very Strong Agreement","Very Strong Agreement","Strong Agreement","Strong Agreement","Strong Agreement","Strong Agreement","Strong Agreement","Very Strong Agreement","Strong Agreement","Moderate Agreement"
"16","A3CWM1AYGCWFX:3JRJSWSMQIR6MSZEQTHGVT0TEAR3E6","practice",2,4,2,"NA","<p style=""font-size:100px""><b>B</b></p><p style=""position: absolute; top: 30px; right: 30px; text-align:right; font-size:50px"""">N = 2</p>","B",1,69,5,1,"agree",18,17,20,19,18,"1980","male","good","Strong Agreement","Moderate Agreement","Strong Agreement","Moderate Agreement","Strong Agreement","Strong Agreement","Very Strong Agreement","Strong Agreement","Very Strong Agreement","Very Strong Agreement","Strong Agreement","Strong Agreement","Strong Agreement","Strong Agreement","Strong Agreement","Very Strong Agreement","Strong Agreement","Moderate Agreement"
"17","A3CWM1AYGCWFX:3JRJSWSMQIR6MSZEQTHGVT0TEAR3E6","practice",2,5,2,"NA","<p style=""font-size:100px""><b>p</b></p><p style=""position: absolute; top: 30px; right: 30px; text-align:right; font-size:50px"""">N = 2</p>","p",0,69,300,0,"agree",18,17,20,19,18,"1980","male","good","Strong Agreement","Moderate Agreement","Strong Agreement","Moderate Agreement","Strong Agreement","Strong Agreement","Very Strong Agreement","Strong Agreement","Very Strong Agreement","Very Strong Agreement","Strong Agreement","Strong Agreement","Strong Agreement","Strong Agreement","Strong Agreement","Very Strong Agreement","Strong Agreement","Moderate Agreement"
"18","A3CWM1AYGCWFX:3JRJSWSMQIR6MSZEQTHGVT0TEAR3E6","practice",2,6,2,"NA","<p style=""font-size:100px""><b>t</b></p><p style=""position: absolute; top: 30px; right: 30px; text-align:right; font-size:50px"""">N = 2</p>","t",0,69,494,0,"agree",18,17,20,19,18,"1980","male","good","Strong Agreement","Moderate Agreement","Strong Agreement","Moderate Agreement","Strong Agreement","Strong Agreement","Very Strong Agreement","Strong Agreement","Very Strong Agreement","Very Strong Agreement","Strong Agreement","Strong Agreement","Strong Agreement","Strong Agreement","Strong Agreement","Very Strong Agreement","Strong Agreement","Moderate Agreement"
"19","A3CWM1AYGCWFX:3JRJSWSMQIR6MSZEQTHGVT0TEAR3E6","practice",2,7,2,"NA","<p style=""font-size:100px""><b>b</b></p><p style=""position: absolute; top: 30px; right: 30px; text-align:right; font-size:50px"""">N = 2</p>","b",0,69,3470,0,"agree",18,17,20,19,18,"1980","male","good","Strong Agreement","Moderate Agreement","Strong Agreement","Moderate Agreement","Strong Agreement","Strong Agreement","Very Strong Agreement","Strong Agreement","Very Strong Agreement","Very Strong Agreement","Strong Agreement","Strong Agreement","Strong Agreement","Strong Agreement","Strong Agreement","Very Strong Agreement","Strong Agreement","Moderate Agreement"
"20","A3CWM1AYGCWFX:3JRJSWSMQIR6MSZEQTHGVT0TEAR3E6","practice",2,8,2,"NA","<p style=""font-size:100px""><b>b</b></p><p style=""position: absolute; top: 30px; right: 30px; text-align:right; font-size:50px"""">N = 2</p>","b",0,69,8,0,"agree",18,17,20,19,18,"1980","male","good","Strong Agreement","Moderate Agreement","Strong Agreement","Moderate Agreement","Strong Agreement","Strong Agreement","Very Strong Agreement","Strong Agreement","Very Strong Agreement","Very Strong Agreement","Strong Agreement","Strong Agreement","Strong Agreement","Strong Agreement","Strong Agreement","Very Strong Agreement","Strong Agreement","Moderate Agreement"
"21","A3CWM1AYGCWFX:3JRJSWSMQIR6MSZEQTHGVT0TEAR3E6","practice",2,9,2,"NA","<p style=""font-size:100px""><b>P</b></p><p style=""position: absolute; top: 30px; right: 30px; text-align:right; font-size:50px"""">N = 2</p>","P",0,69,2642,0,"agree",18,17,20,19,18,"1980","male","good","Strong Agreement","Moderate Agreement","Strong Agreement","Moderate Agreement","Strong Agreement","Strong Agreement","Very Strong Agreement","Strong Agreement","Very Strong Agreement","Very Strong Agreement","Strong Agreement","Strong Agreement","Strong Agreement","Strong Agreement","Strong Agreement","Very Strong Agreement","Strong Agreement","Moderate Agreement"
"22","A3CWM1AYGCWFX:3JRJSWSMQIR6MSZEQTHGVT0TEAR3E6","practice",2,10,2,"NA","<p style=""font-size:100px""><b>d</b></p><p style=""position: absolute; top: 30px; right: 30px; text-align:right; font-size:50px"""">N = 2</p>","d",0,69,348,0,"agree",18,17,20,19,18,"1980","male","good","Strong Agreement","Moderate Agreement","Strong Agreement","Moderate Agreement","Strong Agreement","Strong Agreement","Very Strong Agreement","Strong Agreement","Very Strong Agreement","Very Strong Agreement","Strong Agreement","Strong Agreement","Strong Agreement","Strong Agreement","Strong Agreement","Very Strong Agreement","Strong Agreement","Moderate Agreement"
"23","A3CWM1AYGCWFX:3JRJSWSMQIR6MSZEQTHGVT0TEAR3E6","practice",2,11,2,"NA","<p style=""font-size:100px""><b>P</b></p><p style=""position: absolute; top: 30px; right: 30px; text-align:right; font-size:50px"""">N = 2</p>","P",1,69,321,1,"agree",18,17,20,19,18,"1980","male","good","Strong Agreement","Moderate Agreement","Strong Agreement","Moderate Agreement","Strong Agreement","Strong Agreement","Very Strong Agreement","Strong Agreement","Very Strong Agreement","Very Strong Agreement","Strong Agreement","Strong Agreement","Strong Agreement","Strong Agreement","Strong Agreement","Very Strong Agreement","Strong Agreement","Moderate Agreement"
"24","A3CWM1AYGCWFX:3JRJSWSMQIR6MSZEQTHGVT0TEAR3E6","practice",2,12,2,"NA","<p style=""font-size:100px""><b>d</b></p><p style=""position: absolute; top: 30px; right: 30px; text-align:right; font-size:50px"""">N = 2</p>","d",1,69,906,1,"agree",18,17,20,19,18,"1980","male","good","Strong Agreement","Moderate Agreement","Strong Agreement","Moderate Agreement","Strong Agreement","Strong Agreement","Very Strong Agreement","Strong Agreement","Very Strong Agreement","Very Strong Agreement","Strong Agreement","Strong Agreement","Strong Agreement","Strong Agreement","Strong Agreement","Very Strong Agreement","Strong Agreement","Moderate Agreement"
"25","A3CWM1AYGCWFX:3JRJSWSMQIR6MSZEQTHGVT0TEAR3E6","practice",3,1,3,"NA","<p style=""font-size:100px""><b>D</b></p><p style=""position: absolute; top: 30px; right: 30px; text-align:right; font-size:50px"""">N = 3</p>","D",0,69,1727,0,"agree",18,17,20,19,18,"1980","male","good","Strong Agreement","Moderate Agreement","Strong Agreement","Moderate Agreement","Strong Agreement","Strong Agreement","Very Strong Agreement","Strong Agreement","Very Strong Agreement","Very Strong Agreement","Strong Agreement","Strong Agreement","Strong Agreement","Strong Agreement","Strong Agreement","Very Strong Agreement","Strong Agreement","Moderate Agreement"
"26","A3CWM1AYGCWFX:3JRJSWSMQIR6MSZEQTHGVT0TEAR3E6","practice",3,2,3,"NA","<p style=""font-size:100px""><b>T</b></p><p style=""position: absolute; top: 30px; right: 30px; text-align:right; font-size:50px"""">N = 3</p>","T",0,69,28,0,"agree",18,17,20,19,18,"1980","male","good","Strong Agreement","Moderate Agreement","Strong Agreement","Moderate Agreement","Strong Agreement","Strong Agreement","Very Strong Agreement","Strong Agreement","Very Strong Agreement","Very Strong Agreement","Strong Agreement","Strong Agreement","Strong Agreement","Strong Agreement","Strong Agreement","Very Strong Agreement","Strong Agreement","Moderate Agreement"
"27","A3CWM1AYGCWFX:3JRJSWSMQIR6MSZEQTHGVT0TEAR3E6","practice",3,3,3,"NA","<p style=""font-size:100px""><b>t</b></p><p style=""position: absolute; top: 30px; right: 30px; text-align:right; font-size:50px"""">N = 3</p>","t",0,69,799,0,"agree",18,17,20,19,18,"1980","male","good","Strong Agreement","Moderate Agreement","Strong Agreement","Moderate Agreement","Strong Agreement","Strong Agreement","Very Strong Agreement","Strong Agreement","Very Strong Agreement","Very Strong Agreement","Strong Agreement","Strong Agreement","Strong Agreement","Strong Agreement","Strong Agreement","Very Strong Agreement","Strong Agreement","Moderate Agreement"
"28","A3CWM1AYGCWFX:3JRJSWSMQIR6MSZEQTHGVT0TEAR3E6","practice",3,4,3,"NA","<p style=""font-size:100px""><b>D</b></p><p style=""position: absolute; top: 30px; right: 30px; text-align:right; font-size:50px"""">N = 3</p>","D",1,69,808,1,"agree",18,17,20,19,18,"1980","male","good","Strong Agreement","Moderate Agreement","Strong Agreement","Moderate Agreement","Strong Agreement","Strong Agreement","Very Strong Agreement","Strong Agreement","Very Strong Agreement","Very Strong Agreement","Strong Agreement","Strong Agreement","Strong Agreement","Strong Agreement","Strong Agreement","Very Strong Agreement","Strong Agreement","Moderate Agreement"
"29","A3CWM1AYGCWFX:3JRJSWSMQIR6MSZEQTHGVT0TEAR3E6","practice",3,5,3,"NA","<p style=""font-size:100px""><b>v</b></p><p style=""position: absolute; top: 30px; right: 30px; text-align:right; font-size:50px"""">N = 3</p>","v",0,69,465,0,"agree",18,17,20,19,18,"1980","male","good","Strong Agreement","Moderate Agreement","Strong Agreement","Moderate Agreement","Strong Agreement","Strong Agreement","Very Strong Agreement","Strong Agreement","Very Strong Agreement","Very Strong Agreement","Strong Agreement","Strong Agreement","Strong Agreement","Strong Agreement","Strong Agreement","Very Strong Agreement","Strong Agreement","Moderate Agreement"
"30","A3CWM1AYGCWFX:3JRJSWSMQIR6MSZEQTHGVT0TEAR3E6","practice",3,6,3,"NA","<p style=""font-size:100px""><b>p</b></p><p style=""position: absolute; top: 30px; right: 30px; text-align:right; font-size:50px"""">N = 3</p>","p",0,69,766,0,"agree",18,17,20,19,18,"1980","male","good","Strong Agreement","Moderate Agreement","Strong Agreement","Moderate Agreement","Strong Agreement","Strong Agreement","Very Strong Agreement","Strong Agreement","Very Strong Agreement","Very Strong Agreement","Strong Agreement","Strong Agreement","Strong Agreement","Strong Agreement","Strong Agreement","Very Strong Agreement","Strong Agreement","Moderate Agreement"
"31","A3CWM1AYGCWFX:3JRJSWSMQIR6MSZEQTHGVT0TEAR3E6","practice",3,7,3,"NA","<p style=""font-size:100px""><b>p</b></p><p style=""position: absolute; top: 30px; right: 30px; text-align:right; font-size:50px"""">N = 3</p>","p",0,69,1108,0,"agree",18,17,20,19,18,"1980","male","good","Strong Agreement","Moderate Agreement","Strong Agreement","Moderate Agreement","Strong Agreement","Strong Agreement","Very Strong Agreement","Strong Agreement","Very Strong Agreement","Very Strong Agreement","Strong Agreement","Strong Agreement","Strong Agreement","Strong Agreement","Strong Agreement","Very Strong Agreement","Strong Agreement","Moderate Agreement"
"32","A3CWM1AYGCWFX:3JRJSWSMQIR6MSZEQTHGVT0TEAR3E6","practice",3,8,3,"NA","<p style=""font-size:100px""><b>v</b></p><p style=""position: absolute; top: 30px; right: 30px; text-align:right; font-size:50px"""">N = 3</p>","v",1,69,8,1,"agree",18,17,20,19,18,"1980","male","good","Strong Agreement","Moderate Agreement","Strong Agreement","Moderate Agreement","Strong Agreement","Strong Agreement","Very Strong Agreement","Strong Agreement","Very Strong Agreement","Very Strong Agreement","Strong Agreement","Strong Agreement","Strong Agreement","Strong Agreement","Strong Agreement","Very Strong Agreement","Strong Agreement","Moderate Agreement"
"33","A3CWM1AYGCWFX:3JRJSWSMQIR6MSZEQTHGVT0TEAR3E6","practice",3,9,3,"NA","<p style=""font-size:100px""><b>p</b></p><p style=""position: absolute; top: 30px; right: 30px; text-align:right; font-size:50px"""">N = 3</p>","p",1,69,120,1,"agree",18,17,20,19,18,"1980","male","good","Strong Agreement","Moderate Agreement","Strong Agreement","Moderate Agreement","Strong Agreement","Strong Agreement","Very Strong Agreement","Strong Agreement","Very Strong Agreement","Very Strong Agreement","Strong Agreement","Strong Agreement","Strong Agreement","Strong Agreement","Strong Agreement","Very Strong Agreement","Strong Agreement","Moderate Agreement"
"34","A3CWM1AYGCWFX:3JRJSWSMQIR6MSZEQTHGVT0TEAR3E6","practice",3,10,3,"NA","<p style=""font-size:100px""><b>V</b></p><p style=""position: absolute; top: 30px; right: 30px; text-align:right; font-size:50px"""">N = 3</p>","V",0,69,27,0,"agree",18,17,20,19,18,"1980","male","good","Strong Agreement","Moderate Agreement","Strong Agreement","Moderate Agreement","Strong Agreement","Strong Agreement","Very Strong Agreement","Strong Agreement","Very Strong Agreement","Very Strong Agreement","Strong Agreement","Strong Agreement","Strong Agreement","Strong Agreement","Strong Agreement","Very Strong Agreement","Strong Agreement","Moderate Agreement"
"35","A3CWM1AYGCWFX:3JRJSWSMQIR6MSZEQTHGVT0TEAR3E6","practice",3,11,3,"NA","<p style=""font-size:100px""><b>p</b></p><p style=""position: absolute; top: 30px; right: 30px; text-align:right; font-size:50px"""">N = 3</p>","p",0,69,303,0,"agree",18,17,20,19,18,"1980","male","good","Strong Agreement","Moderate Agreement","Strong Agreement","Moderate Agreement","Strong Agreement","Strong Agreement","Very Strong Agreement","Strong Agreement","Very Strong Agreement","Very Strong Agreement","Strong Agreement","Strong Agreement","Strong Agreement","Strong Agreement","Strong Agreement","Very Strong Agreement","Strong Agreement","Moderate Agreement"
"36","A3CWM1AYGCWFX:3JRJSWSMQIR6MSZEQTHGVT0TEAR3E6","practice",3,12,3,"NA","<p style=""font-size:100px""><b>p</b></p><p style=""position: absolute; top: 30px; right: 30px; text-align:right; font-size:50px"""">N = 3</p>","p",1,69,511,1,"agree",18,17,20,19,18,"1980","male","good","Strong Agreement","Moderate Agreement","Strong Agreement","Moderate Agreement","Strong Agreement","Strong Agreement","Very Strong Agreement","Strong Agreement","Very Strong Agreement","Very Strong Agreement","Strong Agreement","Strong Agreement","Strong Agreement","Strong Agreement","Strong Agreement","Very Strong Agreement","Strong Agreement","Moderate Agreement"
"37","A3CWM1AYGCWFX:3JRJSWSMQIR6MSZEQTHGVT0TEAR3E6","1",1,1,2,"5","<p style=""font-size:100px""><b>v</b></p><p style=""position: absolute; top: 30px; right: 30px; text-align:right; font-size:50px"""">N = 2</p>","v",0,NA,NA,0,"agree",18,17,20,19,18,"1980","male","good","Strong Agreement","Moderate Agreement","Strong Agreement","Moderate Agreement","Strong Agreement","Strong Agreement","Very Strong Agreement","Strong Agreement","Very Strong Agreement","Very Strong Agreement","Strong Agreement","Strong Agreement","Strong Agreement","Strong Agreement","Strong Agreement","Very Strong Agreement","Strong Agreement","Moderate Agreement"
"38","A3CWM1AYGCWFX:3JRJSWSMQIR6MSZEQTHGVT0TEAR3E6","1",1,2,2,"5","<p style=""font-size:100px""><b>D</b></p><p style=""position: absolute; top: 30px; right: 30px; text-align:right; font-size:50px"""">N = 2</p>","D",0,69,840,0,"agree",18,17,20,19,18,"1980","male","good","Strong Agreement","Moderate Agreement","Strong Agreement","Moderate Agreement","Strong Agreement","Strong Agreement","Very Strong Agreement","Strong Agreement","Very Strong Agreement","Very Strong Agreement","Strong Agreement","Strong Agreement","Strong Agreement","Strong Agreement","Strong Agreement","Very Strong Agreement","Strong Agreement","Moderate Agreement"
"39","A3CWM1AYGCWFX:3JRJSWSMQIR6MSZEQTHGVT0TEAR3E6","1",1,3,2,"5","<p style=""font-size:100px""><b>B</b></p><p style=""position: absolute; top: 30px; right: 30px; text-align:right; font-size:50px"""">N = 2</p>","B",0,69,96,0,"agree",18,17,20,19,18,"1980","male","good","Strong Agreement","Moderate Agreement","Strong Agreement","Moderate Agreement","Strong Agreement","Strong Agreement","Very Strong Agreement","Strong Agreement","Very Strong Agreement","Very Strong Agreement","Strong Agreement","Strong Agreement","Strong Agreement","Strong Agreement","Strong Agreement","Very Strong Agreement","Strong Agreement","Moderate Agreement"
"40","A3CWM1AYGCWFX:3JRJSWSMQIR6MSZEQTHGVT0TEAR3E6","1",1,4,2,"5","<p style=""font-size:100px""><b>T</b></p><p style=""position: absolute; top: 30px; right: 30px; text-align:right; font-size:50px"""">N = 2</p>","T",0,69,235,0,"agree",18,17,20,19,18,"1980","male","good","Strong Agreement","Moderate Agreement","Strong Agreement","Moderate Agreement","Strong Agreement","Strong Agreement","Very Strong Agreement","Strong Agreement","Very Strong Agreement","Very Strong Agreement","Strong Agreement","Strong Agreement","Strong Agreement","Strong Agreement","Strong Agreement","Very Strong Agreement","Strong Agreement","Moderate Agreement"
"41","A3CWM1AYGCWFX:3JRJSWSMQIR6MSZEQTHGVT0TEAR3E6","1",1,5,2,"5","<p style=""font-size:100px""><b>V</b></p><p style=""position: absolute; top: 30px; right: 30px; text-align:right; font-size:50px"""">N = 2</p>","V",0,69,306,0,"agree",18,17,20,19,18,"1980","male","good","Strong Agreement","Moderate Agreement","Strong Agreement","Moderate Agreement","Strong Agreement","Strong Agreement","Very Strong Agreement","Strong Agreement","Very Strong Agreement","Very Strong Agreement","Strong Agreement","Strong Agreement","Strong Agreement","Strong Agreement","Strong Agreement","Very Strong Agreement","Strong Agreement","Moderate Agreement"
"42","A3CWM1AYGCWFX:3JRJSWSMQIR6MSZEQTHGVT0TEAR3E6","1",1,6,2,"5","<p style=""font-size:100px""><b>T</b></p><p style=""position: absolute; top: 30px; right: 30px; text-align:right; font-size:50px"""">N = 2</p>","T",0,69,281,0,"agree",18,17,20,19,18,"1980","male","good","Strong Agreement","Moderate Agreement","Strong Agreement","Moderate Agreement","Strong Agreement","Strong Agreement","Very Strong Agreement","Strong Agreement","Very Strong Agreement","Very Strong Agreement","Strong Agreement","Strong Agreement","Strong Agreement","Strong Agreement","Strong Agreement","Very Strong Agreement","Strong Agreement","Moderate Agreement"
"43","A3CWM1AYGCWFX:3JRJSWSMQIR6MSZEQTHGVT0TEAR3E6","1",1,7,2,"5","<p style=""font-size:100px""><b>V</b></p><p style=""position: absolute; top: 30px; right: 30px; text-align:right; font-size:50px"""">N = 2</p>","V",0,69,302,0,"agree",18,17,20,19,18,"1980","male","good","Strong Agreement","Moderate Agreement","Strong Agreement","Moderate Agreement","Strong Agreement","Strong Agreement","Very Strong Agreement","Strong Agreement","Very Strong Agreement","Very Strong Agreement","Strong Agreement","Strong Agreement","Strong Agreement","Strong Agreement","Strong Agreement","Very Strong Agreement","Strong Agreement","Moderate Agreement"
"44","A3CWM1AYGCWFX:3JRJSWSMQIR6MSZEQTHGVT0TEAR3E6","1",1,8,2,"5","<p style=""font-size:100px""><b>T</b></p><p style=""position: absolute; top: 30px; right: 30px; text-align:right; font-size:50px"""">N = 2</p>","T",0,69,234,0,"agree",18,17,20,19,18,"1980","male","good","Strong Agreement","Moderate Agreement","Strong Agreement","Moderate Agreement","Strong Agreement","Strong Agreement","Very Strong Agreement","Strong Agreement","Very Strong Agreement","Very Strong Agreement","Strong Agreement","Strong Agreement","Strong Agreement","Strong Agreement","Strong Agreement","Very Strong Agreement","Strong Agreement","Moderate Agreement"
"45","A3CWM1AYGCWFX:3JRJSWSMQIR6MSZEQTHGVT0TEAR3E6","1",1,9,2,"5","<p style=""font-size:100px""><b>g</b></p><p style=""position: absolute; top: 30px; right: 30px; text-align:right; font-size:50px"""">N = 2</p>","g",0,69,18,0,"agree",18,17,20,19,18,"1980","male","good","Strong Agreement","Moderate Agreement","Strong Agreement","Moderate Agreement","Strong Agreement","Strong Agreement","Very Strong Agreement","Strong Agreement","Very Strong Agreement","Very Strong Agreement","Strong Agreement","Strong Agreement","Strong Agreement","Strong Agreement","Strong Agreement","Very Strong Agreement","Strong Agreement","Moderate Agreement"
"46","A3CWM1AYGCWFX:3JRJSWSMQIR6MSZEQTHGVT0TEAR3E6","1",1,10,2,"5","<p style=""font-size:100px""><b>p</b></p><p style=""position: absolute; top: 30px; right: 30px; text-align:right; font-size:50px"""">N = 2</p>","p",0,69,384,0,"agree",18,17,20,19,18,"1980","male","good","Strong Agreement","Moderate Agreement","Strong Agreement","Moderate Agreement","Strong Agreement","Strong Agreement","Very Strong Agreement","Strong Agreement","Very Strong Agreement","Very Strong Agreement","Strong Agreement","Strong Agreement","Strong Agreement","Strong Agreement","Strong Agreement","Very Strong Agreement","Strong Agreement","Moderate Agreement"
"47","A3CWM1AYGCWFX:3JRJSWSMQIR6MSZEQTHGVT0TEAR3E6","1",1,11,2,"5","<p style=""font-size:100px""><b>p</b></p><p style=""position: absolute; top: 30px; right: 30px; text-align:right; font-size:50px"""">N = 2</p>","p",0,69,278,0,"agree",18,17,20,19,18,"1980","male","good","Strong Agreement","Moderate Agreement","Strong Agreement","Moderate Agreement","Strong Agreement","Strong Agreement","Very Strong Agreement","Strong Agreement","Very Strong Agreement","Very Strong Agreement","Strong Agreement","Strong Agreement","Strong Agreement","Strong Agreement","Strong Agreement","Very Strong Agreement","Strong Agreement","Moderate Agreement"
"48","A3CWM1AYGCWFX:3JRJSWSMQIR6MSZEQTHGVT0TEAR3E6","1",1,12,2,"5","<p style=""font-size:100px""><b>p</b></p><p style=""position: absolute; top: 30px; right: 30px; text-align:right; font-size:50px"""">N = 2</p>","p",0,69,342,0,"agree",18,17,20,19,18,"1980","male","good","Strong Agreement","Moderate Agreement","Strong Agreement","Moderate Agreement","Strong Agreement","Strong Agreement","Very Strong Agreement","Strong Agreement","Very Strong Agreement","Very Strong Agreement","Strong Agreement","Strong Agreement","Strong Agreement","Strong Agreement","Strong Agreement","Very Strong Agreement","Strong Agreement","Moderate Agreement"
"49","A3CWM1AYGCWFX:3JRJSWSMQIR6MSZEQTHGVT0TEAR3E6","1",2,1,1,"50","<p style=""font-size:100px""><b>T</b></p><p style=""position: absolute; top: 30px; right: 30px; text-align:right; font-size:50px"""">N = 1</p>","T",0,69,137,0,"agree",11,19,18,21,20,"1980","male","good","Strong Agreement","Moderate Agreement","Strong Agreement","Moderate Agreement","Strong Agreement","Strong Agreement","Very Strong Agreement","Strong Agreement","Very Strong Agreement","Very Strong Agreement","Strong Agreement","Strong Agreement","Strong Agreement","Strong Agreement","Strong Agreement","Very Strong Agreement","Strong Agreement","Moderate Agreement"
"50","A3CWM1AYGCWFX:3JRJSWSMQIR6MSZEQTHGVT0TEAR3E6","1",2,2,1,"50","<p style=""font-size:100px""><b>V</b></p><p style=""position: absolute; top: 30px; right: 30px; text-align:right; font-size:50px"""">N = 1</p>","V",0,69,695,0,"agree",11,19,18,21,20,"1980","male","good","Strong Agreement","Moderate Agreement","Strong Agreement","Moderate Agreement","Strong Agreement","Strong Agreement","Very Strong Agreement","Strong Agreement","Very Strong Agreement","Very Strong Agreement","Strong Agreement","Strong Agreement","Strong Agreement","Strong Agreement","Strong Agreement","Very Strong Agreement","Strong Agreement","Moderate Agreement"
"51","A3CWM1AYGCWFX:3JRJSWSMQIR6MSZEQTHGVT0TEAR3E6","1",2,3,1,"50","<p style=""font-size:100px""><b>V</b></p><p style=""position: absolute; top: 30px; right: 30px; text-align:right; font-size:50px"""">N = 1</p>","V",0,69,41,0,"agree",11,19,18,21,20,"1980","male","good","Strong Agreement","Moderate Agreement","Strong Agreement","Moderate Agreement","Strong Agreement","Strong Agreement","Very Strong Agreement","Strong Agreement","Very Strong Agreement","Very Strong Agreement","Strong Agreement","Strong Agreement","Strong Agreement","Strong Agreement","Strong Agreement","Very Strong Agreement","Strong Agreement","Moderate Agreement"
"52","A3CWM1AYGCWFX:3JRJSWSMQIR6MSZEQTHGVT0TEAR3E6","1",2,4,1,"50","<p style=""font-size:100px""><b>b</b></p><p style=""position: absolute; top: 30px; right: 30px; text-align:right; font-size:50px"""">N = 1</p>","b",0,69,126,0,"agree",11,19,18,21,20,"1980","male","good","Strong Agreement","Moderate Agreement","Strong Agreement","Moderate Agreement","Strong Agreement","Strong Agreement","Very Strong Agreement","Strong Agreement","Very Strong Agreement","Very Strong Agreement","Strong Agreement","Strong Agreement","Strong Agreement","Strong Agreement","Strong Agreement","Very Strong Agreement","Strong Agreement","Moderate Agreement"
"53","A3CWM1AYGCWFX:3JRJSWSMQIR6MSZEQTHGVT0TEAR3E6","1",2,5,1,"50","<p style=""font-size:100px""><b>b</b></p><p style=""position: absolute; top: 30px; right: 30px; text-align:right; font-size:50px"""">N = 1</p>","b",0,69,143,0,"agree",11,19,18,21,20,"1980","male","good","Strong Agreement","Moderate Agreement","Strong Agreement","Moderate Agreement","Strong Agreement","Strong Agreement","Very Strong Agreement","Strong Agreement","Very Strong Agreement","Very Strong Agreement","Strong Agreement","Strong Agreement","Strong Agreement","Strong Agreement","Strong Agreement","Very Strong Agreement","Strong Agreement","Moderate Agreement"
"54","A3CWM1AYGCWFX:3JRJSWSMQIR6MSZEQTHGVT0TEAR3E6","1",2,6,1,"50","<p style=""font-size:100px""><b>b</b></p><p style=""position: absolute; top: 30px; right: 30px; text-align:right; font-size:50px"""">N = 1</p>","b",0,69,150,0,"agree",11,19,18,21,20,"1980","male","good","Strong Agreement","Moderate Agreement","Strong Agreement","Moderate Agreement","Strong Agreement","Strong Agreement","Very Strong Agreement","Strong Agreement","Very Strong Agreement","Very Strong Agreement","Strong Agreement","Strong Agreement","Strong Agreement","Strong Agreement","Strong Agreement","Very Strong Agreement","Strong Agreement","Moderate Agreement"
"55","A3CWM1AYGCWFX:3JRJSWSMQIR6MSZEQTHGVT0TEAR3E6","1",2,7,1,"50","<p style=""font-size:100px""><b>d</b></p><p style=""position: absolute; top: 30px; right: 30px; text-align:right; font-size:50px"""">N = 1</p>","d",0,69,62,0,"agree",11,19,18,21,20,"1980","male","good","Strong Agreement","Moderate Agreement","Strong Agreement","Moderate Agreement","Strong Agreement","Strong Agreement","Very Strong Agreement","Strong Agreement","Very Strong Agreement","Very Strong Agreement","Strong Agreement","Strong Agreement","Strong Agreement","Strong Agreement","Strong Agreement","Very Strong Agreement","Strong Agreement","Moderate Agreement"
"56","A3CWM1AYGCWFX:3JRJSWSMQIR6MSZEQTHGVT0TEAR3E6","1",2,8,1,"50","<p style=""font-size:100px""><b>d</b></p><p style=""position: absolute; top: 30px; right: 30px; text-align:right; font-size:50px"""">N = 1</p>","d",0,69,201,0,"agree",11,19,18,21,20,"1980","male","good","Strong Agreement","Moderate Agreement","Strong Agreement","Moderate Agreement","Strong Agreement","Strong Agreement","Very Strong Agreement","Strong Agreement","Very Strong Agreement","Very Strong Agreement","Strong Agreement","Strong Agreement","Strong Agreement","Strong Agreement","Strong Agreement","Very Strong Agreement","Strong Agreement","Moderate Agreement"
"57","A3CWM1AYGCWFX:3JRJSWSMQIR6MSZEQTHGVT0TEAR3E6","1",2,9,1,"50","<p style=""font-size:100px""><b>b</b></p><p style=""position: absolute; top: 30px; right: 30px; text-align:right; font-size:50px"""">N = 1</p>","b",0,69,96,0,"agree",11,19,18,21,20,"1980","male","good","Strong Agreement","Moderate Agreement","Strong Agreement","Moderate Agreement","Strong Agreement","Strong Agreement","Very Strong Agreement","Strong Agreement","Very Strong Agreement","Very Strong Agreement","Strong Agreement","Strong Agreement","Strong Agreement","Strong Agreement","Strong Agreement","Very Strong Agreement","Strong Agreement","Moderate Agreement"
"58","A3CWM1AYGCWFX:3JRJSWSMQIR6MSZEQTHGVT0TEAR3E6","1",2,10,1,"50","<p style=""font-size:100px""><b>d</b></p><p style=""position: absolute; top: 30px; right: 30px; text-align:right; font-size:50px"""">N = 1</p>","d",0,69,463,0,"agree",11,19,18,21,20,"1980","male","good","Strong Agreement","Moderate Agreement","Strong Agreement","Moderate Agreement","Strong Agreement","Strong Agreement","Very Strong Agreement","Strong Agreement","Very Strong Agreement","Very Strong Agreement","Strong Agreement","Strong Agreement","Strong Agreement","Strong Agreement","Strong Agreement","Very Strong Agreement","Strong Agreement","Moderate Agreement"
"59","A3CWM1AYGCWFX:3JRJSWSMQIR6MSZEQTHGVT0TEAR3E6","1",2,11,1,"50","<p style=""font-size:100px""><b>g</b></p><p style=""position: absolute; top: 30px; right: 30px; text-align:right; font-size:50px"""">N = 1</p>","g",0,69,316,0,"agree",11,19,18,21,20,"1980","male","good","Strong Agreement","Moderate Agreement","Strong Agreement","Moderate Agreement","Strong Agreement","Strong Agreement","Very Strong Agreement","Strong Agreement","Very Strong Agreement","Very Strong Agreement","Strong Agreement","Strong Agreement","Strong Agreement","Strong Agreement","Strong Agreement","Very Strong Agreement","Strong Agreement","Moderate Agreement"
"60","A3CWM1AYGCWFX:3JRJSWSMQIR6MSZEQTHGVT0TEAR3E6","1",2,12,1,"50","<p style=""font-size:100px""><b>t</b></p><p style=""position: absolute; top: 30px; right: 30px; text-align:right; font-size:50px"""">N = 1</p>","t",0,69,661,0,"agree",11,19,18,21,20,"1980","male","good","Strong Agreement","Moderate Agreement","Strong Agreement","Moderate Agreement","Strong Agreement","Strong Agreement","Very Strong Agreement","Strong Agreement","Very Strong Agreement","Very Strong Agreement","Strong Agreement","Strong Agreement","Strong Agreement","Strong Agreement","Strong Agreement","Very Strong Agreement","Strong Agreement","Moderate Agreement"
"61","A3CWM1AYGCWFX:3JRJSWSMQIR6MSZEQTHGVT0TEAR3E6","1",3,1,2,"50","<p style=""font-size:100px""><b>V</b></p><p style=""position: absolute; top: 30px; right: 30px; text-align:right; font-size:50px"""">N = 2</p>","V",0,NA,NA,0,"agree",11,18,20,19,19,"1980","male","good","Strong Agreement","Moderate Agreement","Strong Agreement","Moderate Agreement","Strong Agreement","Strong Agreement","Very Strong Agreement","Strong Agreement","Very Strong Agreement","Very Strong Agreement","Strong Agreement","Strong Agreement","Strong Agreement","Strong Agreement","Strong Agreement","Very Strong Agreement","Strong Agreement","Moderate Agreement"
"62","A3CWM1AYGCWFX:3JRJSWSMQIR6MSZEQTHGVT0TEAR3E6","1",3,2,2,"50","<p style=""font-size:100px""><b>v</b></p><p style=""position: absolute; top: 30px; right: 30px; text-align:right; font-size:50px"""">N = 2</p>","v",0,69,429,0,"agree",11,18,20,19,19,"1980","male","good","Strong Agreement","Moderate Agreement","Strong Agreement","Moderate Agreement","Strong Agreement","Strong Agreement","Very Strong Agreement","Strong Agreement","Very Strong Agreement","Very Strong Agreement","Strong Agreement","Strong Agreement","Strong Agreement","Strong Agreement","Strong Agreement","Very Strong Agreement","Strong Agreement","Moderate Agreement"
"63","A3CWM1AYGCWFX:3JRJSWSMQIR6MSZEQTHGVT0TEAR3E6","1",3,3,2,"50","<p style=""font-size:100px""><b>t</b></p><p style=""position: absolute; top: 30px; right: 30px; text-align:right; font-size:50px"""">N = 2</p>","t",0,69,296,0,"agree",11,18,20,19,19,"1980","male","good","Strong Agreement","Moderate Agreement","Strong Agreement","Moderate Agreement","Strong Agreement","Strong Agreement","Very Strong Agreement","Strong Agreement","Very Strong Agreement","Very Strong Agreement","Strong Agreement","Strong Agreement","Strong Agreement","Strong Agreement","Strong Agreement","Very Strong Agreement","Strong Agreement","Moderate Agreement"
"64","A3CWM1AYGCWFX:3JRJSWSMQIR6MSZEQTHGVT0TEAR3E6","1",3,4,2,"50","<p style=""font-size:100px""><b>P</b></p><p style=""position: absolute; top: 30px; right: 30px; text-align:right; font-size:50px"""">N = 2</p>","P",0,69,350,0,"agree",11,18,20,19,19,"1980","male","good","Strong Agreement","Moderate Agreement","Strong Agreement","Moderate Agreement","Strong Agreement","Strong Agreement","Very Strong Agreement","Strong Agreement","Very Strong Agreement","Very Strong Agreement","Strong Agreement","Strong Agreement","Strong Agreement","Strong Agreement","Strong Agreement","Very Strong Agreement","Strong Agreement","Moderate Agreement"
"65","A3CWM1AYGCWFX:3JRJSWSMQIR6MSZEQTHGVT0TEAR3E6","1",3,5,2,"50","<p style=""font-size:100px""><b>V</b></p><p style=""position: absolute; top: 30px; right: 30px; text-align:right; font-size:50px"""">N = 2</p>","V",0,69,399,0,"agree",11,18,20,19,19,"1980","male","good","Strong Agreement","Moderate Agreement","Strong Agreement","Moderate Agreement","Strong Agreement","Strong Agreement","Very Strong Agreement","Strong Agreement","Very Strong Agreement","Very Strong Agreement","Strong Agreement","Strong Agreement","Strong Agreement","Strong Agreement","Strong Agreement","Very Strong Agreement","Strong Agreement","Moderate Agreement"
"66","A3CWM1AYGCWFX:3JRJSWSMQIR6MSZEQTHGVT0TEAR3E6","1",3,6,2,"50","<p style=""font-size:100px""><b>P</b></p><p style=""position: absolute; top: 30px; right: 30px; text-align:right; font-size:50px"""">N = 2</p>","P",0,69,182,0,"agree",11,18,20,19,19,"1980","male","good","Strong Agreement","Moderate Agreement","Strong Agreement","Moderate Agreement","Strong Agreement","Strong Agreement","Very Strong Agreement","Strong Agreement","Very Strong Agreement","Very Strong Agreement","Strong Agreement","Strong Agreement","Strong Agreement","Strong Agreement","Strong Agreement","Very Strong Agreement","Strong Agreement","Moderate Agreement"
"67","A3CWM1AYGCWFX:3JRJSWSMQIR6MSZEQTHGVT0TEAR3E6","1",3,7,2,"50","<p style=""font-size:100px""><b>V</b></p><p style=""position: absolute; top: 30px; right: 30px; text-align:right; font-size:50px"""">N = 2</p>","V",0,NA,NA,0,"agree",11,18,20,19,19,"1980","male","good","Strong Agreement","Moderate Agreement","Strong Agreement","Moderate Agreement","Strong Agreement","Strong Agreement","Very Strong Agreement","Strong Agreement","Very Strong Agreement","Very Strong Agreement","Strong Agreement","Strong Agreement","Strong Agreement","Strong Agreement","Strong Agreement","Very Strong Agreement","Strong Agreement","Moderate Agreement"
"68","A3CWM1AYGCWFX:3JRJSWSMQIR6MSZEQTHGVT0TEAR3E6","1",3,8,2,"50","<p style=""font-size:100px""><b>P</b></p><p style=""position: absolute; top: 30px; right: 30px; text-align:right; font-size:50px"""">N = 2</p>","P",0,69,530,0,"agree",11,18,20,19,19,"1980","male","good","Strong Agreement","Moderate Agreement","Strong Agreement","Moderate Agreement","Strong Agreement","Strong Agreement","Very Strong Agreement","Strong Agreement","Very Strong Agreement","Very Strong Agreement","Strong Agreement","Strong Agreement","Strong Agreement","Strong Agreement","Strong Agreement","Very Strong Agreement","Strong Agreement","Moderate Agreement"
"69","A3CWM1AYGCWFX:3JRJSWSMQIR6MSZEQTHGVT0TEAR3E6","1",3,9,2,"50","<p style=""font-size:100px""><b>G</b></p><p style=""position: absolute; top: 30px; right: 30px; text-align:right; font-size:50px"""">N = 2</p>","G",0,69,39,0,"agree",11,18,20,19,19,"1980","male","good","Strong Agreement","Moderate Agreement","Strong Agreement","Moderate Agreement","Strong Agreement","Strong Agreement","Very Strong Agreement","Strong Agreement","Very Strong Agreement","Very Strong Agreement","Strong Agreement","Strong Agreement","Strong Agreement","Strong Agreement","Strong Agreement","Very Strong Agreement","Strong Agreement","Moderate Agreement"
"70","A3CWM1AYGCWFX:3JRJSWSMQIR6MSZEQTHGVT0TEAR3E6","1",3,10,2,"50","<p style=""font-size:100px""><b>T</b></p><p style=""position: absolute; top: 30px; right: 30px; text-align:right; font-size:50px"""">N = 2</p>","T",0,69,49,0,"agree",11,18,20,19,19,"1980","male","good","Strong Agreement","Moderate Agreement","Strong Agreement","Moderate Agreement","Strong Agreement","Strong Agreement","Very Strong Agreement","Strong Agreement","Very Strong Agreement","Very Strong Agreement","Strong Agreement","Strong Agreement","Strong Agreement","Strong Agreement","Strong Agreement","Very Strong Agreement","Strong Agreement","Moderate Agreement"
"71","A3CWM1AYGCWFX:3JRJSWSMQIR6MSZEQTHGVT0TEAR3E6","1",3,11,2,"50","<p style=""font-size:100px""><b>G</b></p><p style=""position: absolute; top: 30px; right: 30px; text-align:right; font-size:50px"""">N = 2</p>","G",0,69,449,0,"agree",11,18,20,19,19,"1980","male","good","Strong Agreement","Moderate Agreement","Strong Agreement","Moderate Agreement","Strong Agreement","Strong Agreement","Very Strong Agreement","Strong Agreement","Very Strong Agreement","Very Strong Agreement","Strong Agreement","Strong Agreement","Strong Agreement","Strong Agreement","Strong Agreement","Very Strong Agreement","Strong Agreement","Moderate Agreement"
"72","A3CWM1AYGCWFX:3JRJSWSMQIR6MSZEQTHGVT0TEAR3E6","1",3,12,2,"50","<p style=""font-size:100px""><b>d</b></p><p style=""position: absolute; top: 30px; right: 30px; text-align:right; font-size:50px"""">N = 2</p>","d",0,69,21,0,"agree",11,18,20,19,19,"1980","male","good","Strong Agreement","Moderate Agreement","Strong Agreement","Moderate Agreement","Strong Agreement","Strong Agreement","Very Strong Agreement","Strong Agreement","Very Strong Agreement","Very Strong Agreement","Strong Agreement","Strong Agreement","Strong Agreement","Strong Agreement","Strong Agreement","Very Strong Agreement","Strong Agreement","Moderate Agreement"
"73","A3CWM1AYGCWFX:3JRJSWSMQIR6MSZEQTHGVT0TEAR3E6","1",4,1,1,"5","<p style=""font-size:100px""><b>b</b></p><p style=""position: absolute; top: 30px; right: 30px; text-align:right; font-size:50px"""">N = 1</p>","b",0,69,735,0,"agree",19,19,19,20,20,"1980","male","good","Strong Agreement","Moderate Agreement","Strong Agreement","Moderate Agreement","Strong Agreement","Strong Agreement","Very Strong Agreement","Strong Agreement","Very Strong Agreement","Very Strong Agreement","Strong Agreement","Strong Agreement","Strong Agreement","Strong Agreement","Strong Agreement","Very Strong Agreement","Strong Agreement","Moderate Agreement"
"74","A3CWM1AYGCWFX:3JRJSWSMQIR6MSZEQTHGVT0TEAR3E6","1",4,2,1,"5","<p style=""font-size:100px""><b>D</b></p><p style=""position: absolute; top: 30px; right: 30px; text-align:right; font-size:50px"""">N = 1</p>","D",0,69,50,0,"agree",19,19,19,20,20,"1980","male","good","Strong Agreement","Moderate Agreement","Strong Agreement","Moderate Agreement","Strong Agreement","Strong Agreement","Very Strong Agreement","Strong Agreement","Very Strong Agreement","Very Strong Agreement","Strong Agreement","Strong Agreement","Strong Agreement","Strong Agreement","Strong Agreement","Very Strong Agreement","Strong Agreement","Moderate Agreement"
"75","A3CWM1AYGCWFX:3JRJSWSMQIR6MSZEQTHGVT0TEAR3E6","1",4,3,1,"5","<p style=""font-size:100px""><b>D</b></p><p style=""position: absolute; top: 30px; right: 30px; text-align:right; font-size:50px"""">N = 1</p>","D",0,69,386,0,"agree",19,19,19,20,20,"1980","male","good","Strong Agreement","Moderate Agreement","Strong Agreement","Moderate Agreement","Strong Agreement","Strong Agreement","Very Strong Agreement","Strong Agreement","Very Strong Agreement","Very Strong Agreement","Strong Agreement","Strong Agreement","Strong Agreement","Strong Agreement","Strong Agreement","Very Strong Agreement","Strong Agreement","Moderate Agreement"
"76","A3CWM1AYGCWFX:3JRJSWSMQIR6MSZEQTHGVT0TEAR3E6","1",4,4,1,"5","<p style=""font-size:100px""><b>D</b></p><p style=""position: absolute; top: 30px; right: 30px; text-align:right; font-size:50px"""">N = 1</p>","D",0,NA,NA,0,"agree",19,19,19,20,20,"1980","male","good","Strong Agreement","Moderate Agreement","Strong Agreement","Moderate Agreement","Strong Agreement","Strong Agreement","Very Strong Agreement","Strong Agreement","Very Strong Agreement","Very Strong Agreement","Strong Agreement","Strong Agreement","Strong Agreement","Strong Agreement","Strong Agreement","Very Strong Agreement","Strong Agreement","Moderate Agreement"
"77","A3CWM1AYGCWFX:3JRJSWSMQIR6MSZEQTHGVT0TEAR3E6","1",4,5,1,"5","<p style=""font-size:100px""><b>v</b></p><p style=""position: absolute; top: 30px; right: 30px; text-align:right; font-size:50px"""">N = 1</p>","v",0,NA,NA,0,"agree",19,19,19,20,20,"1980","male","good","Strong Agreement","Moderate Agreement","Strong Agreement","Moderate Agreement","Strong Agreement","Strong Agreement","Very Strong Agreement","Strong Agreement","Very Strong Agreement","Very Strong Agreement","Strong Agreement","Strong Agreement","Strong Agreement","Strong Agreement","Strong Agreement","Very Strong Agreement","Strong Agreement","Moderate Agreement"
"78","A3CWM1AYGCWFX:3JRJSWSMQIR6MSZEQTHGVT0TEAR3E6","1",4,6,1,"5","<p style=""font-size:100px""><b>T</b></p><p style=""position: absolute; top: 30px; right: 30px; text-align:right; font-size:50px"""">N = 1</p>","T",0,NA,NA,0,"agree",19,19,19,20,20,"1980","male","good","Strong Agreement","Moderate Agreement","Strong Agreement","Moderate Agreement","Strong Agreement","Strong Agreement","Very Strong Agreement","Strong Agreement","Very Strong Agreement","Very Strong Agreement","Strong Agreement","Strong Agreement","Strong Agreement","Strong Agreement","Strong Agreement","Very Strong Agreement","Strong Agreement","Moderate Agreement"
"79","A3CWM1AYGCWFX:3JRJSWSMQIR6MSZEQTHGVT0TEAR3E6","1",4,7,1,"5","<p style=""font-size:100px""><b>T</b></p><p style=""position: absolute; top: 30px; right: 30px; text-align:right; font-size:50px"""">N = 1</p>","T",0,NA,NA,0,"agree",19,19,19,20,20,"1980","male","good","Strong Agreement","Moderate Agreement","Strong Agreement","Moderate Agreement","Strong Agreement","Strong Agreement","Very Strong Agreement","Strong Agreement","Very Strong Agreement","Very Strong Agreement","Strong Agreement","Strong Agreement","Strong Agreement","Strong Agreement","Strong Agreement","Very Strong Agreement","Strong Agreement","Moderate Agreement"
"80","A3CWM1AYGCWFX:3JRJSWSMQIR6MSZEQTHGVT0TEAR3E6","1",4,8,1,"5","<p style=""font-size:100px""><b>v</b></p><p style=""position: absolute; top: 30px; right: 30px; text-align:right; font-size:50px"""">N = 1</p>","v",0,NA,NA,0,"agree",19,19,19,20,20,"1980","male","good","Strong Agreement","Moderate Agreement","Strong Agreement","Moderate Agreement","Strong Agreement","Strong Agreement","Very Strong Agreement","Strong Agreement","Very Strong Agreement","Very Strong Agreement","Strong Agreement","Strong Agreement","Strong Agreement","Strong Agreement","Strong Agreement","Very Strong Agreement","Strong Agreement","Moderate Agreement"
"81","A3CWM1AYGCWFX:3JRJSWSMQIR6MSZEQTHGVT0TEAR3E6","1",4,9,1,"5","<p style=""font-size:100px""><b>p</b></p><p style=""position: absolute; top: 30px; right: 30px; text-align:right; font-size:50px"""">N = 1</p>","p",0,69,335,0,"agree",19,19,19,20,20,"1980","male","good","Strong Agreement","Moderate Agreement","Strong Agreement","Moderate Agreement","Strong Agreement","Strong Agreement","Very Strong Agreement","Strong Agreement","Very Strong Agreement","Very Strong Agreement","Strong Agreement","Strong Agreement","Strong Agreement","Strong Agreement","Strong Agreement","Very Strong Agreement","Strong Agreement","Moderate Agreement"
"82","A3CWM1AYGCWFX:3JRJSWSMQIR6MSZEQTHGVT0TEAR3E6","1",4,10,1,"5","<p style=""font-size:100px""><b>v</b></p><p style=""position: absolute; top: 30px; right: 30px; text-align:right; font-size:50px"""">N = 1</p>","v",0,69,55,0,"agree",19,19,19,20,20,"1980","male","good","Strong Agreement","Moderate Agreement","Strong Agreement","Moderate Agreement","Strong Agreement","Strong Agreement","Very Strong Agreement","Strong Agreement","Very Strong Agreement","Very Strong Agreement","Strong Agreement","Strong Agreement","Strong Agreement","Strong Agreement","Strong Agreement","Very Strong Agreement","Strong Agreement","Moderate Agreement"
"83","A3CWM1AYGCWFX:3JRJSWSMQIR6MSZEQTHGVT0TEAR3E6","1",4,11,1,"5","<p style=""font-size:100px""><b>g</b></p><p style=""position: absolute; top: 30px; right: 30px; text-align:right; font-size:50px"""">N = 1</p>","g",0,69,544,0,"agree",19,19,19,20,20,"1980","male","good","Strong Agreement","Moderate Agreement","Strong Agreement","Moderate Agreement","Strong Agreement","Strong Agreement","Very Strong Agreement","Strong Agreement","Very Strong Agreement","Very Strong Agreement","Strong Agreement","Strong Agreement","Strong Agreement","Strong Agreement","Strong Agreement","Very Strong Agreement","Strong Agreement","Moderate Agreement"
"84","A3CWM1AYGCWFX:3JRJSWSMQIR6MSZEQTHGVT0TEAR3E6","1",4,12,1,"5","<p style=""font-size:100px""><b>g</b></p><p style=""position: absolute; top: 30px; right: 30px; text-align:right; font-size:50px"""">N = 1</p>","g",0,69,6,0,"agree",19,19,19,20,20,"1980","male","good","Strong Agreement","Moderate Agreement","Strong Agreement","Moderate Agreement","Strong Agreement","Strong Agreement","Very Strong Agreement","Strong Agreement","Very Strong Agreement","Very Strong Agreement","Strong Agreement","Strong Agreement","Strong Agreement","Strong Agreement","Strong Agreement","Very Strong Agreement","Strong Agreement","Moderate Agreement"
"85","A3CWM1AYGCWFX:3JRJSWSMQIR6MSZEQTHGVT0TEAR3E6","1",5,1,2,"5","<p style=""font-size:100px""><b>D</b></p><p style=""position: absolute; top: 30px; right: 30px; text-align:right; font-size:50px"""">N = 2</p>","D",0,69,44,0,"agree",20,19,20,20,19,"1980","male","good","Strong Agreement","Moderate Agreement","Strong Agreement","Moderate Agreement","Strong Agreement","Strong Agreement","Very Strong Agreement","Strong Agreement","Very Strong Agreement","Very Strong Agreement","Strong Agreement","Strong Agreement","Strong Agreement","Strong Agreement","Strong Agreement","Very Strong Agreement","Strong Agreement","Moderate Agreement"
"86","A3CWM1AYGCWFX:3JRJSWSMQIR6MSZEQTHGVT0TEAR3E6","1",5,2,2,"5","<p style=""font-size:100px""><b>b</b></p><p style=""position: absolute; top: 30px; right: 30px; text-align:right; font-size:50px"""">N = 2</p>","b",0,69,247,0,"agree",20,19,20,20,19,"1980","male","good","Strong Agreement","Moderate Agreement","Strong Agreement","Moderate Agreement","Strong Agreement","Strong Agreement","Very Strong Agreement","Strong Agreement","Very Strong Agreement","Very Strong Agreement","Strong Agreement","Strong Agreement","Strong Agreement","Strong Agreement","Strong Agreement","Very Strong Agreement","Strong Agreement","Moderate Agreement"
"87","A3CWM1AYGCWFX:3JRJSWSMQIR6MSZEQTHGVT0TEAR3E6","1",5,3,2,"5","<p style=""font-size:100px""><b>D</b></p><p style=""position: absolute; top: 30px; right: 30px; text-align:right; font-size:50px"""">N = 2</p>","D",0,69,96,0,"agree",20,19,20,20,19,"1980","male","good","Strong Agreement","Moderate Agreement","Strong Agreement","Moderate Agreement","Strong Agreement","Strong Agreement","Very Strong Agreement","Strong Agreement","Very Strong Agreement","Very Strong Agreement","Strong Agreement","Strong Agreement","Strong Agreement","Strong Agreement","Strong Agreement","Very Strong Agreement","Strong Agreement","Moderate Agreement"
"88","A3CWM1AYGCWFX:3JRJSWSMQIR6MSZEQTHGVT0TEAR3E6","1",5,4,2,"5","<p style=""font-size:100px""><b>v</b></p><p style=""position: absolute; top: 30px; right: 30px; text-align:right; font-size:50px"""">N = 2</p>","v",0,69,608,0,"agree",20,19,20,20,19,"1980","male","good","Strong Agreement","Moderate Agreement","Strong Agreement","Moderate Agreement","Strong Agreement","Strong Agreement","Very Strong Agreement","Strong Agreement","Very Strong Agreement","Very Strong Agreement","Strong Agreement","Strong Agreement","Strong Agreement","Strong Agreement","Strong Agreement","Very Strong Agreement","Strong Agreement","Moderate Agreement"
"89","A3CWM1AYGCWFX:3JRJSWSMQIR6MSZEQTHGVT0TEAR3E6","1",5,5,2,"5","<p style=""font-size:100px""><b>T</b></p><p style=""position: absolute; top: 30px; right: 30px; text-align:right; font-size:50px"""">N = 2</p>","T",0,NA,NA,0,"agree",20,19,20,20,19,"1980","male","good","Strong Agreement","Moderate Agreement","Strong Agreement","Moderate Agreement","Strong Agreement","Strong Agreement","Very Strong Agreement","Strong Agreement","Very Strong Agreement","Very Strong Agreement","Strong Agreement","Strong Agreement","Strong Agreement","Strong Agreement","Strong Agreement","Very Strong Agreement","Strong Agreement","Moderate Agreement"
"90","A3CWM1AYGCWFX:3JRJSWSMQIR6MSZEQTHGVT0TEAR3E6","1",5,6,2,"5","<p style=""font-size:100px""><b>v</b></p><p style=""position: absolute; top: 30px; right: 30px; text-align:right; font-size:50px"""">N = 2</p>","v",0,69,480,0,"agree",20,19,20,20,19,"1980","male","good","Strong Agreement","Moderate Agreement","Strong Agreement","Moderate Agreement","Strong Agreement","Strong Agreement","Very Strong Agreement","Strong Agreement","Very Strong Agreement","Very Strong Agreement","Strong Agreement","Strong Agreement","Strong Agreement","Strong Agreement","Strong Agreement","Very Strong Agreement","Strong Agreement","Moderate Agreement"
"91","A3CWM1AYGCWFX:3JRJSWSMQIR6MSZEQTHGVT0TEAR3E6","1",5,7,2,"5","<p style=""font-size:100px""><b>V</b></p><p style=""position: absolute; top: 30px; right: 30px; text-align:right; font-size:50px"""">N = 2</p>","V",0,69,228,0,"agree",20,19,20,20,19,"1980","male","good","Strong Agreement","Moderate Agreement","Strong Agreement","Moderate Agreement","Strong Agreement","Strong Agreement","Very Strong Agreement","Strong Agreement","Very Strong Agreement","Very Strong Agreement","Strong Agreement","Strong Agreement","Strong Agreement","Strong Agreement","Strong Agreement","Very Strong Agreement","Strong Agreement","Moderate Agreement"
"92","A3CWM1AYGCWFX:3JRJSWSMQIR6MSZEQTHGVT0TEAR3E6","1",5,8,2,"5","<p style=""font-size:100px""><b>b</b></p><p style=""position: absolute; top: 30px; right: 30px; text-align:right; font-size:50px"""">N = 2</p>","b",0,69,416,0,"agree",20,19,20,20,19,"1980","male","good","Strong Agreement","Moderate Agreement","Strong Agreement","Moderate Agreement","Strong Agreement","Strong Agreement","Very Strong Agreement","Strong Agreement","Very Strong Agreement","Very Strong Agreement","Strong Agreement","Strong Agreement","Strong Agreement","Strong Agreement","Strong Agreement","Very Strong Agreement","Strong Agreement","Moderate Agreement"
"93","A3CWM1AYGCWFX:3JRJSWSMQIR6MSZEQTHGVT0TEAR3E6","1",5,9,2,"5","<p style=""font-size:100px""><b>p</b></p><p style=""position: absolute; top: 30px; right: 30px; text-align:right; font-size:50px"""">N = 2</p>","p",0,69,116,0,"agree",20,19,20,20,19,"1980","male","good","Strong Agreement","Moderate Agreement","Strong Agreement","Moderate Agreement","Strong Agreement","Strong Agreement","Very Strong Agreement","Strong Agreement","Very Strong Agreement","Very Strong Agreement","Strong Agreement","Strong Agreement","Strong Agreement","Strong Agreement","Strong Agreement","Very Strong Agreement","Strong Agreement","Moderate Agreement"
"94","A3CWM1AYGCWFX:3JRJSWSMQIR6MSZEQTHGVT0TEAR3E6","1",5,10,2,"5","<p style=""font-size:100px""><b>b</b></p><p style=""position: absolute; top: 30px; right: 30px; text-align:right; font-size:50px"""">N = 2</p>","b",0,69,238,0,"agree",20,19,20,20,19,"1980","male","good","Strong Agreement","Moderate Agreement","Strong Agreement","Moderate Agreement","Strong Agreement","Strong Agreement","Very Strong Agreement","Strong Agreement","Very Strong Agreement","Very Strong Agreement","Strong Agreement","Strong Agreement","Strong Agreement","Strong Agreement","Strong Agreement","Very Strong Agreement","Strong Agreement","Moderate Agreement"
"95","A3CWM1AYGCWFX:3JRJSWSMQIR6MSZEQTHGVT0TEAR3E6","1",5,11,2,"5","<p style=""font-size:100px""><b>p</b></p><p style=""position: absolute; top: 30px; right: 30px; text-align:right; font-size:50px"""">N = 2</p>","p",0,69,222,0,"agree",20,19,20,20,19,"1980","male","good","Strong Agreement","Moderate Agreement","Strong Agreement","Moderate Agreement","Strong Agreement","Strong Agreement","Very Strong Agreement","Strong Agreement","Very Strong Agreement","Very Strong Agreement","Strong Agreement","Strong Agreement","Strong Agreement","Strong Agreement","Strong Agreement","Very Strong Agreement","Strong Agreement","Moderate Agreement"
"96","A3CWM1AYGCWFX:3JRJSWSMQIR6MSZEQTHGVT0TEAR3E6","1",5,12,2,"5","<p style=""font-size:100px""><b>p</b></p><p style=""position: absolute; top: 30px; right: 30px; text-align:right; font-size:50px"""">N = 2</p>","p",0,69,41,0,"agree",20,19,20,20,19,"1980","male","good","Strong Agreement","Moderate Agreement","Strong Agreement","Moderate Agreement","Strong Agreement","Strong Agreement","Very Strong Agreement","Strong Agreement","Very Strong Agreement","Very Strong Agreement","Strong Agreement","Strong Agreement","Strong Agreement","Strong Agreement","Strong Agreement","Very Strong Agreement","Strong Agreement","Moderate Agreement"
"97","A3CWM1AYGCWFX:3JRJSWSMQIR6MSZEQTHGVT0TEAR3E6","1",6,1,3,"50","<p style=""font-size:100px""><b>G</b></p><p style=""position: absolute; top: 30px; right: 30px; text-align:right; font-size:50px"""">N = 3</p>","G",0,69,21,0,"agree",20,20,19,20,19,"1980","male","good","Strong Agreement","Moderate Agreement","Strong Agreement","Moderate Agreement","Strong Agreement","Strong Agreement","Very Strong Agreement","Strong Agreement","Very Strong Agreement","Very Strong Agreement","Strong Agreement","Strong Agreement","Strong Agreement","Strong Agreement","Strong Agreement","Very Strong Agreement","Strong Agreement","Moderate Agreement"
"98","A3CWM1AYGCWFX:3JRJSWSMQIR6MSZEQTHGVT0TEAR3E6","1",6,2,3,"50","<p style=""font-size:100px""><b>b</b></p><p style=""position: absolute; top: 30px; right: 30px; text-align:right; font-size:50px"""">N = 3</p>","b",0,NA,NA,0,"agree",20,20,19,20,19,"1980","male","good","Strong Agreement","Moderate Agreement","Strong Agreement","Moderate Agreement","Strong Agreement","Strong Agreement","Very Strong Agreement","Strong Agreement","Very Strong Agreement","Very Strong Agreement","Strong Agreement","Strong Agreement","Strong Agreement","Strong Agreement","Strong Agreement","Very Strong Agreement","Strong Agreement","Moderate Agreement"
"99","A3CWM1AYGCWFX:3JRJSWSMQIR6MSZEQTHGVT0TEAR3E6","1",6,3,3,"50","<p style=""font-size:100px""><b>v</b></p><p style=""position: absolute; top: 30px; right: 30px; text-align:right; font-size:50px"""">N = 3</p>","v",0,69,221,0,"agree",20,20,19,20,19,"1980","male","good","Strong Agreement","Moderate Agreement","Strong Agreement","Moderate Agreement","Strong Agreement","Strong Agreement","Very Strong Agreement","Strong Agreement","Very Strong Agreement","Very Strong Agreement","Strong Agreement","Strong Agreement","Strong Agreement","Strong Agreement","Strong Agreement","Very Strong Agreement","Strong Agreement","Moderate Agreement"
"100","A3CWM1AYGCWFX:3JRJSWSMQIR6MSZEQTHGVT0TEAR3E6","1",6,4,3,"50","<p style=""font-size:100px""><b>B</b></p><p style=""position: absolute; top: 30px; right: 30px; text-align:right; font-size:50px"""">N = 3</p>","B",0,69,253,0,"agree",20,20,19,20,19,"1980","male","good","Strong Agreement","Moderate Agreement","Strong Agreement","Moderate Agreement","Strong Agreement","Strong Agreement","Very Strong Agreement","Strong Agreement","Very Strong Agreement","Very Strong Agreement","Strong Agreement","Strong Agreement","Strong Agreement","Strong Agreement","Strong Agreement","Very Strong Agreement","Strong Agreement","Moderate Agreement"
"101","A3CWM1AYGCWFX:3JRJSWSMQIR6MSZEQTHGVT0TEAR3E6","1",6,5,3,"50","<p style=""font-size:100px""><b>P</b></p><p style=""position: absolute; top: 30px; right: 30px; text-align:right; font-size:50px"""">N = 3</p>","P",0,69,222,0,"agree",20,20,19,20,19,"1980","male","good","Strong Agreement","Moderate Agreement","Strong Agreement","Moderate Agreement","Strong Agreement","Strong Agreement","Very Strong Agreement","Strong Agreement","Very Strong Agreement","Very Strong Agreement","Strong Agreement","Strong Agreement","Strong Agreement","Strong Agreement","Strong Agreement","Very Strong Agreement","Strong Agreement","Moderate Agreement"
"102","A3CWM1AYGCWFX:3JRJSWSMQIR6MSZEQTHGVT0TEAR3E6","1",6,6,3,"50","<p style=""font-size:100px""><b>v</b></p><p style=""position: absolute; top: 30px; right: 30px; text-align:right; font-size:50px"""">N = 3</p>","v",0,69,98,0,"agree",20,20,19,20,19,"1980","male","good","Strong Agreement","Moderate Agreement","Strong Agreement","Moderate Agreement","Strong Agreement","Strong Agreement","Very Strong Agreement","Strong Agreement","Very Strong Agreement","Very Strong Agreement","Strong Agreement","Strong Agreement","Strong Agreement","Strong Agreement","Strong Agreement","Very Strong Agreement","Strong Agreement","Moderate Agreement"
"103","A3CWM1AYGCWFX:3JRJSWSMQIR6MSZEQTHGVT0TEAR3E6","1",6,7,3,"50","<p style=""font-size:100px""><b>t</b></p><p style=""position: absolute; top: 30px; right: 30px; text-align:right; font-size:50px"""">N = 3</p>","t",0,69,79,0,"agree",20,20,19,20,19,"1980","male","good","Strong Agreement","Moderate Agreement","Strong Agreement","Moderate Agreement","Strong Agreement","Strong Agreement","Very Strong Agreement","Strong Agreement","Very Strong Agreement","Very Strong Agreement","Strong Agreement","Strong Agreement","Strong Agreement","Strong Agreement","Strong Agreement","Very Strong Agreement","Strong Agreement","Moderate Agreement"
"104","A3CWM1AYGCWFX:3JRJSWSMQIR6MSZEQTHGVT0TEAR3E6","1",6,8,3,"50","<p style=""font-size:100px""><b>d</b></p><p style=""position: absolute; top: 30px; right: 30px; text-align:right; font-size:50px"""">N = 3</p>","d",0,69,361,0,"agree",20,20,19,20,19,"1980","male","good","Strong Agreement","Moderate Agreement","Strong Agreement","Moderate Agreement","Strong Agreement","Strong Agreement","Very Strong Agreement","Strong Agreement","Very Strong Agreement","Very Strong Agreement","Strong Agreement","Strong Agreement","Strong Agreement","Strong Agreement","Strong Agreement","Very Strong Agreement","Strong Agreement","Moderate Agreement"
"105","A3CWM1AYGCWFX:3JRJSWSMQIR6MSZEQTHGVT0TEAR3E6","1",6,9,3,"50","<p style=""font-size:100px""><b>v</b></p><p style=""position: absolute; top: 30px; right: 30px; text-align:right; font-size:50px"""">N = 3</p>","v",0,69,302,0,"agree",20,20,19,20,19,"1980","male","good","Strong Agreement","Moderate Agreement","Strong Agreement","Moderate Agreement","Strong Agreement","Strong Agreement","Very Strong Agreement","Strong Agreement","Very Strong Agreement","Very Strong Agreement","Strong Agreement","Strong Agreement","Strong Agreement","Strong Agreement","Strong Agreement","Very Strong Agreement","Strong Agreement","Moderate Agreement"
"106","A3CWM1AYGCWFX:3JRJSWSMQIR6MSZEQTHGVT0TEAR3E6","1",6,10,3,"50","<p style=""font-size:100px""><b>p</b></p><p style=""position: absolute; top: 30px; right: 30px; text-align:right; font-size:50px"""">N = 3</p>","p",0,69,664,0,"agree",20,20,19,20,19,"1980","male","good","Strong Agreement","Moderate Agreement","Strong Agreement","Moderate Agreement","Strong Agreement","Strong Agreement","Very Strong Agreement","Strong Agreement","Very Strong Agreement","Very Strong Agreement","Strong Agreement","Strong Agreement","Strong Agreement","Strong Agreement","Strong Agreement","Very Strong Agreement","Strong Agreement","Moderate Agreement"
"107","A3CWM1AYGCWFX:3JRJSWSMQIR6MSZEQTHGVT0TEAR3E6","1",6,11,3,"50","<p style=""font-size:100px""><b>d</b></p><p style=""position: absolute; top: 30px; right: 30px; text-align:right; font-size:50px"""">N = 3</p>","d",0,69,71,0,"agree",20,20,19,20,19,"1980","male","good","Strong Agreement","Moderate Agreement","Strong Agreement","Moderate Agreement","Strong Agreement","Strong Agreement","Very Strong Agreement","Strong Agreement","Very Strong Agreement","Very Strong Agreement","Strong Agreement","Strong Agreement","Strong Agreement","Strong Agreement","Strong Agreement","Very Strong Agreement","Strong Agreement","Moderate Agreement"
"108","A3CWM1AYGCWFX:3JRJSWSMQIR6MSZEQTHGVT0TEAR3E6","1",6,12,3,"50","<p style=""font-size:100px""><b>v</b></p><p style=""position: absolute; top: 30px; right: 30px; text-align:right; font-size:50px"""">N = 3</p>","v",0,NA,NA,0,"agree",20,20,19,20,19,"1980","male","good","Strong Agreement","Moderate Agreement","Strong Agreement","Moderate Agreement","Strong Agreement","Strong Agreement","Very Strong Agreement","Strong Agreement","Very Strong Agreement","Very Strong Agreement","Strong Agreement","Strong Agreement","Strong Agreement","Strong Agreement","Strong Agreement","Very Strong Agreement","Strong Agreement","Moderate Agreement"
"109","A3CWM1AYGCWFX:3JRJSWSMQIR6MSZEQTHGVT0TEAR3E6","2",7,1,2,"5","<p style=""font-size:100px""><b>D</b></p><p style=""position: absolute; top: 30px; right: 30px; text-align:right; font-size:50px"""">N = 2</p>","D",0,NA,NA,0,"agree",19,19,18,20,20,"1980","male","good","Strong Agreement","Moderate Agreement","Strong Agreement","Moderate Agreement","Strong Agreement","Strong Agreement","Very Strong Agreement","Strong Agreement","Very Strong Agreement","Very Strong Agreement","Strong Agreement","Strong Agreement","Strong Agreement","Strong Agreement","Strong Agreement","Very Strong Agreement","Strong Agreement","Moderate Agreement"
"110","A3CWM1AYGCWFX:3JRJSWSMQIR6MSZEQTHGVT0TEAR3E6","2",7,2,2,"5","<p style=""font-size:100px""><b>v</b></p><p style=""position: absolute; top: 30px; right: 30px; text-align:right; font-size:50px"""">N = 2</p>","v",0,NA,NA,0,"agree",19,19,18,20,20,"1980","male","good","Strong Agreement","Moderate Agreement","Strong Agreement","Moderate Agreement","Strong Agreement","Strong Agreement","Very Strong Agreement","Strong Agreement","Very Strong Agreement","Very Strong Agreement","Strong Agreement","Strong Agreement","Strong Agreement","Strong Agreement","Strong Agreement","Very Strong Agreement","Strong Agreement","Moderate Agreement"
"111","A3CWM1AYGCWFX:3JRJSWSMQIR6MSZEQTHGVT0TEAR3E6","2",7,3,2,"5","<p style=""font-size:100px""><b>b</b></p><p style=""position: absolute; top: 30px; right: 30px; text-align:right; font-size:50px"""">N = 2</p>","b",0,NA,NA,0,"agree",19,19,18,20,20,"1980","male","good","Strong Agreement","Moderate Agreement","Strong Agreement","Moderate Agreement","Strong Agreement","Strong Agreement","Very Strong Agreement","Strong Agreement","Very Strong Agreement","Very Strong Agreement","Strong Agreement","Strong Agreement","Strong Agreement","Strong Agreement","Strong Agreement","Very Strong Agreement","Strong Agreement","Moderate Agreement"
"112","A3CWM1AYGCWFX:3JRJSWSMQIR6MSZEQTHGVT0TEAR3E6","2",7,4,2,"5","<p style=""font-size:100px""><b>p</b></p><p style=""position: absolute; top: 30px; right: 30px; text-align:right; font-size:50px"""">N = 2</p>","p",0,NA,NA,0,"agree",19,19,18,20,20,"1980","male","good","Strong Agreement","Moderate Agreement","Strong Agreement","Moderate Agreement","Strong Agreement","Strong Agreement","Very Strong Agreement","Strong Agreement","Very Strong Agreement","Very Strong Agreement","Strong Agreement","Strong Agreement","Strong Agreement","Strong Agreement","Strong Agreement","Very Strong Agreement","Strong Agreement","Moderate Agreement"
"113","A3CWM1AYGCWFX:3JRJSWSMQIR6MSZEQTHGVT0TEAR3E6","2",7,5,2,"5","<p style=""font-size:100px""><b>D</b></p><p style=""position: absolute; top: 30px; right: 30px; text-align:right; font-size:50px"""">N = 2</p>","D",0,NA,NA,0,"agree",19,19,18,20,20,"1980","male","good","Strong Agreement","Moderate Agreement","Strong Agreement","Moderate Agreement","Strong Agreement","Strong Agreement","Very Strong Agreement","Strong Agreement","Very Strong Agreement","Very Strong Agreement","Strong Agreement","Strong Agreement","Strong Agreement","Strong Agreement","Strong Agreement","Very Strong Agreement","Strong Agreement","Moderate Agreement"
"114","A3CWM1AYGCWFX:3JRJSWSMQIR6MSZEQTHGVT0TEAR3E6","2",7,6,2,"5","<p style=""font-size:100px""><b>v</b></p><p style=""position: absolute; top: 30px; right: 30px; text-align:right; font-size:50px"""">N = 2</p>","v",0,NA,NA,0,"agree",19,19,18,20,20,"1980","male","good","Strong Agreement","Moderate Agreement","Strong Agreement","Moderate Agreement","Strong Agreement","Strong Agreement","Very Strong Agreement","Strong Agreement","Very Strong Agreement","Very Strong Agreement","Strong Agreement","Strong Agreement","Strong Agreement","Strong Agreement","Strong Agreement","Very Strong Agreement","Strong Agreement","Moderate Agreement"
"115","A3CWM1AYGCWFX:3JRJSWSMQIR6MSZEQTHGVT0TEAR3E6","2",7,7,2,"5","<p style=""font-size:100px""><b>G</b></p><p style=""position: absolute; top: 30px; right: 30px; text-align:right; font-size:50px"""">N = 2</p>","G",0,NA,NA,0,"agree",19,19,18,20,20,"1980","male","good","Strong Agreement","Moderate Agreement","Strong Agreement","Moderate Agreement","Strong Agreement","Strong Agreement","Very Strong Agreement","Strong Agreement","Very Strong Agreement","Very Strong Agreement","Strong Agreement","Strong Agreement","Strong Agreement","Strong Agreement","Strong Agreement","Very Strong Agreement","Strong Agreement","Moderate Agreement"
"116","A3CWM1AYGCWFX:3JRJSWSMQIR6MSZEQTHGVT0TEAR3E6","2",7,8,2,"5","<p style=""font-size:100px""><b>v</b></p><p style=""position: absolute; top: 30px; right: 30px; text-align:right; font-size:50px"""">N = 2</p>","v",0,NA,NA,0,"agree",19,19,18,20,20,"1980","male","good","Strong Agreement","Moderate Agreement","Strong Agreement","Moderate Agreement","Strong Agreement","Strong Agreement","Very Strong Agreement","Strong Agreement","Very Strong Agreement","Very Strong Agreement","Strong Agreement","Strong Agreement","Strong Agreement","Strong Agreement","Strong Agreement","Very Strong Agreement","Strong Agreement","Moderate Agreement"
"117","A3CWM1AYGCWFX:3JRJSWSMQIR6MSZEQTHGVT0TEAR3E6","2",7,9,2,"5","<p style=""font-size:100px""><b>G</b></p><p style=""position: absolute; top: 30px; right: 30px; text-align:right; font-size:50px"""">N = 2</p>","G",0,69,710,0,"agree",19,19,18,20,20,"1980","male","good","Strong Agreement","Moderate Agreement","Strong Agreement","Moderate Agreement","Strong Agreement","Strong Agreement","Very Strong Agreement","Strong Agreement","Very Strong Agreement","Very Strong Agreement","Strong Agreement","Strong Agreement","Strong Agreement","Strong Agreement","Strong Agreement","Very Strong Agreement","Strong Agreement","Moderate Agreement"
"118","A3CWM1AYGCWFX:3JRJSWSMQIR6MSZEQTHGVT0TEAR3E6","2",7,10,2,"5","<p style=""font-size:100px""><b>v</b></p><p style=""position: absolute; top: 30px; right: 30px; text-align:right; font-size:50px"""">N = 2</p>","v",0,69,128,0,"agree",19,19,18,20,20,"1980","male","good","Strong Agreement","Moderate Agreement","Strong Agreement","Moderate Agreement","Strong Agreement","Strong Agreement","Very Strong Agreement","Strong Agreement","Very Strong Agreement","Very Strong Agreement","Strong Agreement","Strong Agreement","Strong Agreement","Strong Agreement","Strong Agreement","Very Strong Agreement","Strong Agreement","Moderate Agreement"
"119","A3CWM1AYGCWFX:3JRJSWSMQIR6MSZEQTHGVT0TEAR3E6","2",7,11,2,"5","<p style=""font-size:100px""><b>D</b></p><p style=""position: absolute; top: 30px; right: 30px; text-align:right; font-size:50px"""">N = 2</p>","D",0,69,39,0,"agree",19,19,18,20,20,"1980","male","good","Strong Agreement","Moderate Agreement","Strong Agreement","Moderate Agreement","Strong Agreement","Strong Agreement","Very Strong Agreement","Strong Agreement","Very Strong Agreement","Very Strong Agreement","Strong Agreement","Strong Agreement","Strong Agreement","Strong Agreement","Strong Agreement","Very Strong Agreement","Strong Agreement","Moderate Agreement"
"120","A3CWM1AYGCWFX:3JRJSWSMQIR6MSZEQTHGVT0TEAR3E6","2",7,12,2,"5","<p style=""font-size:100px""><b>v</b></p><p style=""position: absolute; top: 30px; right: 30px; text-align:right; font-size:50px"""">N = 2</p>","v",0,NA,NA,0,"agree",19,19,18,20,20,"1980","male","good","Strong Agreement","Moderate Agreement","Strong Agreement","Moderate Agreement","Strong Agreement","Strong Agreement","Very Strong Agreement","Strong Agreement","Very Strong Agreement","Very Strong Agreement","Strong Agreement","Strong Agreement","Strong Agreement","Strong Agreement","Strong Agreement","Very Strong Agreement","Strong Agreement","Moderate Agreement"
"121","A3CWM1AYGCWFX:3JRJSWSMQIR6MSZEQTHGVT0TEAR3E6","2",8,1,2,"50","<p style=""font-size:100px""><b>d</b></p><p style=""position: absolute; top: 30px; right: 30px; text-align:right; font-size:50px"""">N = 2</p>","d",0,NA,NA,0,"agree",20,20,19,20,19,"1980","male","good","Strong Agreement","Moderate Agreement","Strong Agreement","Moderate Agreement","Strong Agreement","Strong Agreement","Very Strong Agreement","Strong Agreement","Very Strong Agreement","Very Strong Agreement","Strong Agreement","Strong Agreement","Strong Agreement","Strong Agreement","Strong Agreement","Very Strong Agreement","Strong Agreement","Moderate Agreement"
"122","A3CWM1AYGCWFX:3JRJSWSMQIR6MSZEQTHGVT0TEAR3E6","2",8,2,2,"50","<p style=""font-size:100px""><b>b</b></p><p style=""position: absolute; top: 30px; right: 30px; text-align:right; font-size:50px"""">N = 2</p>","b",0,NA,NA,0,"agree",20,20,19,20,19,"1980","male","good","Strong Agreement","Moderate Agreement","Strong Agreement","Moderate Agreement","Strong Agreement","Strong Agreement","Very Strong Agreement","Strong Agreement","Very Strong Agreement","Very Strong Agreement","Strong Agreement","Strong Agreement","Strong Agreement","Strong Agreement","Strong Agreement","Very Strong Agreement","Strong Agreement","Moderate Agreement"
"123","A3CWM1AYGCWFX:3JRJSWSMQIR6MSZEQTHGVT0TEAR3E6","2",8,3,2,"50","<p style=""font-size:100px""><b>d</b></p><p style=""position: absolute; top: 30px; right: 30px; text-align:right; font-size:50px"""">N = 2</p>","d",0,NA,NA,0,"agree",20,20,19,20,19,"1980","male","good","Strong Agreement","Moderate Agreement","Strong Agreement","Moderate Agreement","Strong Agreement","Strong Agreement","Very Strong Agreement","Strong Agreement","Very Strong Agreement","Very Strong Agreement","Strong Agreement","Strong Agreement","Strong Agreement","Strong Agreement","Strong Agreement","Very Strong Agreement","Strong Agreement","Moderate Agreement"
"124","A3CWM1AYGCWFX:3JRJSWSMQIR6MSZEQTHGVT0TEAR3E6","2",8,4,2,"50","<p style=""font-size:100px""><b>b</b></p><p style=""position: absolute; top: 30px; right: 30px; text-align:right; font-size:50px"""">N = 2</p>","b",0,NA,NA,0,"agree",20,20,19,20,19,"1980","male","good","Strong Agreement","Moderate Agreement","Strong Agreement","Moderate Agreement","Strong Agreement","Strong Agreement","Very Strong Agreement","Strong Agreement","Very Strong Agreement","Very Strong Agreement","Strong Agreement","Strong Agreement","Strong Agreement","Strong Agreement","Strong Agreement","Very Strong Agreement","Strong Agreement","Moderate Agreement"
"125","A3CWM1AYGCWFX:3JRJSWSMQIR6MSZEQTHGVT0TEAR3E6","2",8,5,2,"50","<p style=""font-size:100px""><b>B</b></p><p style=""position: absolute; top: 30px; right: 30px; text-align:right; font-size:50px"""">N = 2</p>","B",0,69,492,0,"agree",20,20,19,20,19,"1980","male","good","Strong Agreement","Moderate Agreement","Strong Agreement","Moderate Agreement","Strong Agreement","Strong Agreement","Very Strong Agreement","Strong Agreement","Very Strong Agreement","Very Strong Agreement","Strong Agreement","Strong Agreement","Strong Agreement","Strong Agreement","Strong Agreement","Very Strong Agreement","Strong Agreement","Moderate Agreement"
"126","A3CWM1AYGCWFX:3JRJSWSMQIR6MSZEQTHGVT0TEAR3E6","2",8,6,2,"50","<p style=""font-size:100px""><b>G</b></p><p style=""position: absolute; top: 30px; right: 30px; text-align:right; font-size:50px"""">N = 2</p>","G",0,69,346,0,"agree",20,20,19,20,19,"1980","male","good","Strong Agreement","Moderate Agreement","Strong Agreement","Moderate Agreement","Strong Agreement","Strong Agreement","Very Strong Agreement","Strong Agreement","Very Strong Agreement","Very Strong Agreement","Strong Agreement","Strong Agreement","Strong Agreement","Strong Agreement","Strong Agreement","Very Strong Agreement","Strong Agreement","Moderate Agreement"
"127","A3CWM1AYGCWFX:3JRJSWSMQIR6MSZEQTHGVT0TEAR3E6","2",8,7,2,"50","<p style=""font-size:100px""><b>P</b></p><p style=""position: absolute; top: 30px; right: 30px; text-align:right; font-size:50px"""">N = 2</p>","P",0,69,285,0,"agree",20,20,19,20,19,"1980","male","good","Strong Agreement","Moderate Agreement","Strong Agreement","Moderate Agreement","Strong Agreement","Strong Agreement","Very Strong Agreement","Strong Agreement","Very Strong Agreement","Very Strong Agreement","Strong Agreement","Strong Agreement","Strong Agreement","Strong Agreement","Strong Agreement","Very Strong Agreement","Strong Agreement","Moderate Agreement"
"128","A3CWM1AYGCWFX:3JRJSWSMQIR6MSZEQTHGVT0TEAR3E6","2",8,8,2,"50","<p style=""font-size:100px""><b>P</b></p><p style=""position: absolute; top: 30px; right: 30px; text-align:right; font-size:50px"""">N = 2</p>","P",0,NA,NA,0,"agree",20,20,19,20,19,"1980","male","good","Strong Agreement","Moderate Agreement","Strong Agreement","Moderate Agreement","Strong Agreement","Strong Agreement","Very Strong Agreement","Strong Agreement","Very Strong Agreement","Very Strong Agreement","Strong Agreement","Strong Agreement","Strong Agreement","Strong Agreement","Strong Agreement","Very Strong Agreement","Strong Agreement","Moderate Agreement"
"129","A3CWM1AYGCWFX:3JRJSWSMQIR6MSZEQTHGVT0TEAR3E6","2",8,9,2,"50","<p style=""font-size:100px""><b>V</b></p><p style=""position: absolute; top: 30px; right: 30px; text-align:right; font-size:50px"""">N = 2</p>","V",0,NA,NA,0,"agree",20,20,19,20,19,"1980","male","good","Strong Agreement","Moderate Agreement","Strong Agreement","Moderate Agreement","Strong Agreement","Strong Agreement","Very Strong Agreement","Strong Agreement","Very Strong Agreement","Very Strong Agreement","Strong Agreement","Strong Agreement","Strong Agreement","Strong Agreement","Strong Agreement","Very Strong Agreement","Strong Agreement","Moderate Agreement"
"130","A3CWM1AYGCWFX:3JRJSWSMQIR6MSZEQTHGVT0TEAR3E6","2",8,10,2,"50","<p style=""font-size:100px""><b>D</b></p><p style=""position: absolute; top: 30px; right: 30px; text-align:right; font-size:50px"""">N = 2</p>","D",0,69,167,0,"agree",20,20,19,20,19,"1980","male","good","Strong Agreement","Moderate Agreement","Strong Agreement","Moderate Agreement","Strong Agreement","Strong Agreement","Very Strong Agreement","Strong Agreement","Very Strong Agreement","Very Strong Agreement","Strong Agreement","Strong Agreement","Strong Agreement","Strong Agreement","Strong Agreement","Very Strong Agreement","Strong Agreement","Moderate Agreement"
"131","A3CWM1AYGCWFX:3JRJSWSMQIR6MSZEQTHGVT0TEAR3E6","2",8,11,2,"50","<p style=""font-size:100px""><b>V</b></p><p style=""position: absolute; top: 30px; right: 30px; text-align:right; font-size:50px"""">N = 2</p>","V",0,69,560,0,"agree",20,20,19,20,19,"1980","male","good","Strong Agreement","Moderate Agreement","Strong Agreement","Moderate Agreement","Strong Agreement","Strong Agreement","Very Strong Agreement","Strong Agreement","Very Strong Agreement","Very Strong Agreement","Strong Agreement","Strong Agreement","Strong Agreement","Strong Agreement","Strong Agreement","Very Strong Agreement","Strong Agreement","Moderate Agreement"
"132","A3CWM1AYGCWFX:3JRJSWSMQIR6MSZEQTHGVT0TEAR3E6","2",8,12,2,"50","<p style=""font-size:100px""><b>D</b></p><p style=""position: absolute; top: 30px; right: 30px; text-align:right; font-size:50px"""">N = 2</p>","D",0,NA,NA,0,"agree",20,20,19,20,19,"1980","male","good","Strong Agreement","Moderate Agreement","Strong Agreement","Moderate Agreement","Strong Agreement","Strong Agreement","Very Strong Agreement","Strong Agreement","Very Strong Agreement","Very Strong Agreement","Strong Agreement","Strong Agreement","Strong Agreement","Strong Agreement","Strong Agreement","Very Strong Agreement","Strong Agreement","Moderate Agreement"
"133","A3CWM1AYGCWFX:3JRJSWSMQIR6MSZEQTHGVT0TEAR3E6","2",9,1,1,"5","<p style=""font-size:100px""><b>v</b></p><p style=""position: absolute; top: 30px; right: 30px; text-align:right; font-size:50px"""">N = 1</p>","v",0,NA,NA,0,"agree",19,19,20,20,20,"1980","male","good","Strong Agreement","Moderate Agreement","Strong Agreement","Moderate Agreement","Strong Agreement","Strong Agreement","Very Strong Agreement","Strong Agreement","Very Strong Agreement","Very Strong Agreement","Strong Agreement","Strong Agreement","Strong Agreement","Strong Agreement","Strong Agreement","Very Strong Agreement","Strong Agreement","Moderate Agreement"
"134","A3CWM1AYGCWFX:3JRJSWSMQIR6MSZEQTHGVT0TEAR3E6","2",9,2,1,"5","<p style=""font-size:100px""><b>P</b></p><p style=""position: absolute; top: 30px; right: 30px; text-align:right; font-size:50px"""">N = 1</p>","P",0,NA,NA,0,"agree",19,19,20,20,20,"1980","male","good","Strong Agreement","Moderate Agreement","Strong Agreement","Moderate Agreement","Strong Agreement","Strong Agreement","Very Strong Agreement","Strong Agreement","Very Strong Agreement","Very Strong Agreement","Strong Agreement","Strong Agreement","Strong Agreement","Strong Agreement","Strong Agreement","Very Strong Agreement","Strong Agreement","Moderate Agreement"
"135","A3CWM1AYGCWFX:3JRJSWSMQIR6MSZEQTHGVT0TEAR3E6","2",9,3,1,"5","<p style=""font-size:100px""><b>B</b></p><p style=""position: absolute; top: 30px; right: 30px; text-align:right; font-size:50px"""">N = 1</p>","B",0,69,540,0,"agree",19,19,20,20,20,"1980","male","good","Strong Agreement","Moderate Agreement","Strong Agreement","Moderate Agreement","Strong Agreement","Strong Agreement","Very Strong Agreement","Strong Agreement","Very Strong Agreement","Very Strong Agreement","Strong Agreement","Strong Agreement","Strong Agreement","Strong Agreement","Strong Agreement","Very Strong Agreement","Strong Agreement","Moderate Agreement"
"136","A3CWM1AYGCWFX:3JRJSWSMQIR6MSZEQTHGVT0TEAR3E6","2",9,4,1,"5","<p style=""font-size:100px""><b>D</b></p><p style=""position: absolute; top: 30px; right: 30px; text-align:right; font-size:50px"""">N = 1</p>","D",0,69,158,0,"agree",19,19,20,20,20,"1980","male","good","Strong Agreement","Moderate Agreement","Strong Agreement","Moderate Agreement","Strong Agreement","Strong Agreement","Very Strong Agreement","Strong Agreement","Very Strong Agreement","Very Strong Agreement","Strong Agreement","Strong Agreement","Strong Agreement","Strong Agreement","Strong Agreement","Very Strong Agreement","Strong Agreement","Moderate Agreement"
"137","A3CWM1AYGCWFX:3JRJSWSMQIR6MSZEQTHGVT0TEAR3E6","2",9,5,1,"5","<p style=""font-size:100px""><b>T</b></p><p style=""position: absolute; top: 30px; right: 30px; text-align:right; font-size:50px"""">N = 1</p>","T",0,69,118,0,"agree",19,19,20,20,20,"1980","male","good","Strong Agreement","Moderate Agreement","Strong Agreement","Moderate Agreement","Strong Agreement","Strong Agreement","Very Strong Agreement","Strong Agreement","Very Strong Agreement","Very Strong Agreement","Strong Agreement","Strong Agreement","Strong Agreement","Strong Agreement","Strong Agreement","Very Strong Agreement","Strong Agreement","Moderate Agreement"
"138","A3CWM1AYGCWFX:3JRJSWSMQIR6MSZEQTHGVT0TEAR3E6","2",9,6,1,"5","<p style=""font-size:100px""><b>b</b></p><p style=""position: absolute; top: 30px; right: 30px; text-align:right; font-size:50px"""">N = 1</p>","b",0,NA,NA,0,"agree",19,19,20,20,20,"1980","male","good","Strong Agreement","Moderate Agreement","Strong Agreement","Moderate Agreement","Strong Agreement","Strong Agreement","Very Strong Agreement","Strong Agreement","Very Strong Agreement","Very Strong Agreement","Strong Agreement","Strong Agreement","Strong Agreement","Strong Agreement","Strong Agreement","Very Strong Agreement","Strong Agreement","Moderate Agreement"
"139","A3CWM1AYGCWFX:3JRJSWSMQIR6MSZEQTHGVT0TEAR3E6","2",9,7,1,"5","<p style=""font-size:100px""><b>P</b></p><p style=""position: absolute; top: 30px; right: 30px; text-align:right; font-size:50px"""">N = 1</p>","P",0,69,198,0,"agree",19,19,20,20,20,"1980","male","good","Strong Agreement","Moderate Agreement","Strong Agreement","Moderate Agreement","Strong Agreement","Strong Agreement","Very Strong Agreement","Strong Agreement","Very Strong Agreement","Very Strong Agreement","Strong Agreement","Strong Agreement","Strong Agreement","Strong Agreement","Strong Agreement","Very Strong Agreement","Strong Agreement","Moderate Agreement"
"140","A3CWM1AYGCWFX:3JRJSWSMQIR6MSZEQTHGVT0TEAR3E6","2",9,8,1,"5","<p style=""font-size:100px""><b>P</b></p><p style=""position: absolute; top: 30px; right: 30px; text-align:right; font-size:50px"""">N = 1</p>","P",0,69,32,0,"agree",19,19,20,20,20,"1980","male","good","Strong Agreement","Moderate Agreement","Strong Agreement","Moderate Agreement","Strong Agreement","Strong Agreement","Very Strong Agreement","Strong Agreement","Very Strong Agreement","Very Strong Agreement","Strong Agreement","Strong Agreement","Strong Agreement","Strong Agreement","Strong Agreement","Very Strong Agreement","Strong Agreement","Moderate Agreement"
"141","A3CWM1AYGCWFX:3JRJSWSMQIR6MSZEQTHGVT0TEAR3E6","2",9,9,1,"5","<p style=""font-size:100px""><b>P</b></p><p style=""position: absolute; top: 30px; right: 30px; text-align:right; font-size:50px"""">N = 1</p>","P",0,69,542,0,"agree",19,19,20,20,20,"1980","male","good","Strong Agreement","Moderate Agreement","Strong Agreement","Moderate Agreement","Strong Agreement","Strong Agreement","Very Strong Agreement","Strong Agreement","Very Strong Agreement","Very Strong Agreement","Strong Agreement","Strong Agreement","Strong Agreement","Strong Agreement","Strong Agreement","Very Strong Agreement","Strong Agreement","Moderate Agreement"
"142","A3CWM1AYGCWFX:3JRJSWSMQIR6MSZEQTHGVT0TEAR3E6","2",9,10,1,"5","<p style=""font-size:100px""><b>P</b></p><p style=""position: absolute; top: 30px; right: 30px; text-align:right; font-size:50px"""">N = 1</p>","P",0,69,72,0,"agree",19,19,20,20,20,"1980","male","good","Strong Agreement","Moderate Agreement","Strong Agreement","Moderate Agreement","Strong Agreement","Strong Agreement","Very Strong Agreement","Strong Agreement","Very Strong Agreement","Very Strong Agreement","Strong Agreement","Strong Agreement","Strong Agreement","Strong Agreement","Strong Agreement","Very Strong Agreement","Strong Agreement","Moderate Agreement"
"143","A3CWM1AYGCWFX:3JRJSWSMQIR6MSZEQTHGVT0TEAR3E6","2",9,11,1,"5","<p style=""font-size:100px""><b>P</b></p><p style=""position: absolute; top: 30px; right: 30px; text-align:right; font-size:50px"""">N = 1</p>","P",0,69,14,0,"agree",19,19,20,20,20,"1980","male","good","Strong Agreement","Moderate Agreement","Strong Agreement","Moderate Agreement","Strong Agreement","Strong Agreement","Very Strong Agreement","Strong Agreement","Very Strong Agreement","Very Strong Agreement","Strong Agreement","Strong Agreement","Strong Agreement","Strong Agreement","Strong Agreement","Very Strong Agreement","Strong Agreement","Moderate Agreement"
"144","A3CWM1AYGCWFX:3JRJSWSMQIR6MSZEQTHGVT0TEAR3E6","2",9,12,1,"5","<p style=""font-size:100px""><b>d</b></p><p style=""position: absolute; top: 30px; right: 30px; text-align:right; font-size:50px"""">N = 1</p>","d",0,69,98,0,"agree",19,19,20,20,20,"1980","male","good","Strong Agreement","Moderate Agreement","Strong Agreement","Moderate Agreement","Strong Agreement","Strong Agreement","Very Strong Agreement","Strong Agreement","Very Strong Agreement","Very Strong Agreement","Strong Agreement","Strong Agreement","Strong Agreement","Strong Agreement","Strong Agreement","Very Strong Agreement","Strong Agreement","Moderate Agreement"
"145","A3CWM1AYGCWFX:3JRJSWSMQIR6MSZEQTHGVT0TEAR3E6","2",10,1,1,"5","<p style=""font-size:100px""><b>d</b></p><p style=""position: absolute; top: 30px; right: 30px; text-align:right; font-size:50px"""">N = 1</p>","d",0,NA,NA,0,"agree",19,19,19,19,19,"1980","male","good","Strong Agreement","Moderate Agreement","Strong Agreement","Moderate Agreement","Strong Agreement","Strong Agreement","Very Strong Agreement","Strong Agreement","Very Strong Agreement","Very Strong Agreement","Strong Agreement","Strong Agreement","Strong Agreement","Strong Agreement","Strong Agreement","Very Strong Agreement","Strong Agreement","Moderate Agreement"
"146","A3CWM1AYGCWFX:3JRJSWSMQIR6MSZEQTHGVT0TEAR3E6","2",10,2,1,"5","<p style=""font-size:100px""><b>b</b></p><p style=""position: absolute; top: 30px; right: 30px; text-align:right; font-size:50px"""">N = 1</p>","b",0,NA,NA,0,"agree",19,19,19,19,19,"1980","male","good","Strong Agreement","Moderate Agreement","Strong Agreement","Moderate Agreement","Strong Agreement","Strong Agreement","Very Strong Agreement","Strong Agreement","Very Strong Agreement","Very Strong Agreement","Strong Agreement","Strong Agreement","Strong Agreement","Strong Agreement","Strong Agreement","Very Strong Agreement","Strong Agreement","Moderate Agreement"
"147","A3CWM1AYGCWFX:3JRJSWSMQIR6MSZEQTHGVT0TEAR3E6","2",10,3,1,"5","<p style=""font-size:100px""><b>v</b></p><p style=""position: absolute; top: 30px; right: 30px; text-align:right; font-size:50px"""">N = 1</p>","v",0,NA,NA,0,"agree",19,19,19,19,19,"1980","male","good","Strong Agreement","Moderate Agreement","Strong Agreement","Moderate Agreement","Strong Agreement","Strong Agreement","Very Strong Agreement","Strong Agreement","Very Strong Agreement","Very Strong Agreement","Strong Agreement","Strong Agreement","Strong Agreement","Strong Agreement","Strong Agreement","Very Strong Agreement","Strong Agreement","Moderate Agreement"
"148","A3CWM1AYGCWFX:3JRJSWSMQIR6MSZEQTHGVT0TEAR3E6","2",10,4,1,"5","<p style=""font-size:100px""><b>v</b></p><p style=""position: absolute; top: 30px; right: 30px; text-align:right; font-size:50px"""">N = 1</p>","v",0,NA,NA,0,"agree",19,19,19,19,19,"1980","male","good","Strong Agreement","Moderate Agreement","Strong Agreement","Moderate Agreement","Strong Agreement","Strong Agreement","Very Strong Agreement","Strong Agreement","Very Strong Agreement","Very Strong Agreement","Strong Agreement","Strong Agreement","Strong Agreement","Strong Agreement","Strong Agreement","Very Strong Agreement","Strong Agreement","Moderate Agreement"
"149","A3CWM1AYGCWFX:3JRJSWSMQIR6MSZEQTHGVT0TEAR3E6","2",10,5,1,"5","<p style=""font-size:100px""><b>v</b></p><p style=""position: absolute; top: 30px; right: 30px; text-align:right; font-size:50px"""">N = 1</p>","v",0,NA,NA,0,"agree",19,19,19,19,19,"1980","male","good","Strong Agreement","Moderate Agreement","Strong Agreement","Moderate Agreement","Strong Agreement","Strong Agreement","Very Strong Agreement","Strong Agreement","Very Strong Agreement","Very Strong Agreement","Strong Agreement","Strong Agreement","Strong Agreement","Strong Agreement","Strong Agreement","Very Strong Agreement","Strong Agreement","Moderate Agreement"
"150","A3CWM1AYGCWFX:3JRJSWSMQIR6MSZEQTHGVT0TEAR3E6","2",10,6,1,"5","<p style=""font-size:100px""><b>P</b></p><p style=""position: absolute; top: 30px; right: 30px; text-align:right; font-size:50px"""">N = 1</p>","P",0,NA,NA,0,"agree",19,19,19,19,19,"1980","male","good","Strong Agreement","Moderate Agreement","Strong Agreement","Moderate Agreement","Strong Agreement","Strong Agreement","Very Strong Agreement","Strong Agreement","Very Strong Agreement","Very Strong Agreement","Strong Agreement","Strong Agreement","Strong Agreement","Strong Agreement","Strong Agreement","Very Strong Agreement","Strong Agreement","Moderate Agreement"
"151","A3CWM1AYGCWFX:3JRJSWSMQIR6MSZEQTHGVT0TEAR3E6","2",10,7,1,"5","<p style=""font-size:100px""><b>P</b></p><p style=""position: absolute; top: 30px; right: 30px; text-align:right; font-size:50px"""">N = 1</p>","P",0,NA,NA,0,"agree",19,19,19,19,19,"1980","male","good","Strong Agreement","Moderate Agreement","Strong Agreement","Moderate Agreement","Strong Agreement","Strong Agreement","Very Strong Agreement","Strong Agreement","Very Strong Agreement","Very Strong Agreement","Strong Agreement","Strong Agreement","Strong Agreement","Strong Agreement","Strong Agreement","Very Strong Agreement","Strong Agreement","Moderate Agreement"
"152","A3CWM1AYGCWFX:3JRJSWSMQIR6MSZEQTHGVT0TEAR3E6","2",10,8,1,"5","<p style=""font-size:100px""><b>P</b></p><p style=""position: absolute; top: 30px; right: 30px; text-align:right; font-size:50px"""">N = 1</p>","P",0,NA,NA,0,"agree",19,19,19,19,19,"1980","male","good","Strong Agreement","Moderate Agreement","Strong Agreement","Moderate Agreement","Strong Agreement","Strong Agreement","Very Strong Agreement","Strong Agreement","Very Strong Agreement","Very Strong Agreement","Strong Agreement","Strong Agreement","Strong Agreement","Strong Agreement","Strong Agreement","Very Strong Agreement","Strong Agreement","Moderate Agreement"
"153","A3CWM1AYGCWFX:3JRJSWSMQIR6MSZEQTHGVT0TEAR3E6","2",10,9,1,"5","<p style=""font-size:100px""><b>b</b></p><p style=""position: absolute; top: 30px; right: 30px; text-align:right; font-size:50px"""">N = 1</p>","b",0,NA,NA,0,"agree",19,19,19,19,19,"1980","male","good","Strong Agreement","Moderate Agreement","Strong Agreement","Moderate Agreement","Strong Agreement","Strong Agreement","Very Strong Agreement","Strong Agreement","Very Strong Agreement","Very Strong Agreement","Strong Agreement","Strong Agreement","Strong Agreement","Strong Agreement","Strong Agreement","Very Strong Agreement","Strong Agreement","Moderate Agreement"
"154","A3CWM1AYGCWFX:3JRJSWSMQIR6MSZEQTHGVT0TEAR3E6","2",10,10,1,"5","<p style=""font-size:100px""><b>V</b></p><p style=""position: absolute; top: 30px; right: 30px; text-align:right; font-size:50px"""">N = 1</p>","V",0,NA,NA,0,"agree",19,19,19,19,19,"1980","male","good","Strong Agreement","Moderate Agreement","Strong Agreement","Moderate Agreement","Strong Agreement","Strong Agreement","Very Strong Agreement","Strong Agreement","Very Strong Agreement","Very Strong Agreement","Strong Agreement","Strong Agreement","Strong Agreement","Strong Agreement","Strong Agreement","Very Strong Agreement","Strong Agreement","Moderate Agreement"
"155","A3CWM1AYGCWFX:3JRJSWSMQIR6MSZEQTHGVT0TEAR3E6","2",10,11,1,"5","<p style=""font-size:100px""><b>D</b></p><p style=""position: absolute; top: 30px; right: 30px; text-align:right; font-size:50px"""">N = 1</p>","D",0,NA,NA,0,"agree",19,19,19,19,19,"1980","male","good","Strong Agreement","Moderate Agreement","Strong Agreement","Moderate Agreement","Strong Agreement","Strong Agreement","Very Strong Agreement","Strong Agreement","Very Strong Agreement","Very Strong Agreement","Strong Agreement","Strong Agreement","Strong Agreement","Strong Agreement","Strong Agreement","Very Strong Agreement","Strong Agreement","Moderate Agreement"
