"","subject","run","block","trial","N","reward","stimulus","cue","isTarget","key_press","rt","acc","debrief","performance","frustration","demand","temporal","effort","age","gender","comments","nfc1","nfc2","nfc3","nfc4","nfc5","nfc6","nfc7","nfc8","nfc9","nfc10","nfc11","nfc12","nfc13","nfc14","nfc15","nfc16","nfc17","nfc18"
"1","A2AXY7I6TCRVP5:32Z9ZLUT1MQ7SRJ2ZS9E4ZVH1HTHO9","practice",1,1,1,"NA","<p style=""font-size:100px""><b>B</b></p><p style=""position: absolute; top: 30px; right: 30px; text-align:right; font-size:50px"""">N = 1</p>","B",0,69,1430.89999985695,0,"agree",18,19,17,20,18,"35","male","everything is clear","Very Strong Agreement","Strong Agreement","Slight Agreement","Moderate Agreement","Very Strong Agreement","Strong Agreement","Very Strong Agreement","Strong Agreement","Very Strong Agreement","Very Strong Agreement","Strong Agreement","Very Strong Agreement","Strong Agreement","Very Strong Agreement","Strong Agreement","Moderate Agreement","Moderate Agreement","Very Strong Agreement"
"2","A2AXY7I6TCRVP5:32Z9ZLUT1MQ7SRJ2ZS9E4ZVH1HTHO9","practice",1,2,1,"NA","<p style=""font-size:100px""><b>G</b></p><p style=""position: absolute; top: 30px; right: 30px; text-align:right; font-size:50px"""">N = 1</p>","G",0,73,1358.59999990463,1,"agree",18,19,17,20,18,"35","male","everything is clear","Very Strong Agreement","Strong Agreement","Slight Agreement","Moderate Agreement","Very Strong Agreement","Strong Agreement","Very Strong Agreement","Strong Agreement","Very Strong Agreement","Very Strong Agreement","Strong Agreement","Very Strong Agreement","Strong Agreement","Very Strong Agreement","Strong Agreement","Moderate Agreement","Moderate Agreement","Very Strong Agreement"
"3","A2AXY7I6TCRVP5:32Z9ZLUT1MQ7SRJ2ZS9E4ZVH1HTHO9","practice",1,3,1,"NA","<p style=""font-size:100px""><b>t</b></p><p style=""position: absolute; top: 30px; right: 30px; text-align:right; font-size:50px"""">N = 1</p>","t",0,73,1105.39999985695,1,"agree",18,19,17,20,18,"35","male","everything is clear","Very Strong Agreement","Strong Agreement","Slight Agreement","Moderate Agreement","Very Strong Agreement","Strong Agreement","Very Strong Agreement","Strong Agreement","Very Strong Agreement","Very Strong Agreement","Strong Agreement","Very Strong Agreement","Strong Agreement","Very Strong Agreement","Strong Agreement","Moderate Agreement","Moderate Agreement","Very Strong Agreement"
"4","A2AXY7I6TCRVP5:32Z9ZLUT1MQ7SRJ2ZS9E4ZVH1HTHO9","practice",1,4,1,"NA","<p style=""font-size:100px""><b>t</b></p><p style=""position: absolute; top: 30px; right: 30px; text-align:right; font-size:50px"""">N = 1</p>","t",1,73,854.799999952316,0,"agree",18,19,17,20,18,"35","male","everything is clear","Very Strong Agreement","Strong Agreement","Slight Agreement","Moderate Agreement","Very Strong Agreement","Strong Agreement","Very Strong Agreement","Strong Agreement","Very Strong Agreement","Very Strong Agreement","Strong Agreement","Very Strong Agreement","Strong Agreement","Very Strong Agreement","Strong Agreement","Moderate Agreement","Moderate Agreement","Very Strong Agreement"
"5","A2AXY7I6TCRVP5:32Z9ZLUT1MQ7SRJ2ZS9E4ZVH1HTHO9","practice",1,5,1,"NA","<p style=""font-size:100px""><b>t</b></p><p style=""position: absolute; top: 30px; right: 30px; text-align:right; font-size:50px"""">N = 1</p>","t",1,69,1362.59999990463,1,"agree",18,19,17,20,18,"35","male","everything is clear","Very Strong Agreement","Strong Agreement","Slight Agreement","Moderate Agreement","Very Strong Agreement","Strong Agreement","Very Strong Agreement","Strong Agreement","Very Strong Agreement","Very Strong Agreement","Strong Agreement","Very Strong Agreement","Strong Agreement","Very Strong Agreement","Strong Agreement","Moderate Agreement","Moderate Agreement","Very Strong Agreement"
"6","A2AXY7I6TCRVP5:32Z9ZLUT1MQ7SRJ2ZS9E4ZVH1HTHO9","practice",1,6,1,"NA","<p style=""font-size:100px""><b>G</b></p><p style=""position: absolute; top: 30px; right: 30px; text-align:right; font-size:50px"""">N = 1</p>","G",0,73,1391.70000004768,1,"agree",18,19,17,20,18,"35","male","everything is clear","Very Strong Agreement","Strong Agreement","Slight Agreement","Moderate Agreement","Very Strong Agreement","Strong Agreement","Very Strong Agreement","Strong Agreement","Very Strong Agreement","Very Strong Agreement","Strong Agreement","Very Strong Agreement","Strong Agreement","Very Strong Agreement","Strong Agreement","Moderate Agreement","Moderate Agreement","Very Strong Agreement"
"7","A2AXY7I6TCRVP5:32Z9ZLUT1MQ7SRJ2ZS9E4ZVH1HTHO9","practice",1,7,1,"NA","<p style=""font-size:100px""><b>G</b></p><p style=""position: absolute; top: 30px; right: 30px; text-align:right; font-size:50px"""">N = 1</p>","G",1,69,1115.19999980927,1,"agree",18,19,17,20,18,"35","male","everything is clear","Very Strong Agreement","Strong Agreement","Slight Agreement","Moderate Agreement","Very Strong Agreement","Strong Agreement","Very Strong Agreement","Strong Agreement","Very Strong Agreement","Very Strong Agreement","Strong Agreement","Very Strong Agreement","Strong Agreement","Very Strong Agreement","Strong Agreement","Moderate Agreement","Moderate Agreement","Very Strong Agreement"
"8","A2AXY7I6TCRVP5:32Z9ZLUT1MQ7SRJ2ZS9E4ZVH1HTHO9","practice",1,8,1,"NA","<p style=""font-size:100px""><b>T</b></p><p style=""position: absolute; top: 30px; right: 30px; text-align:right; font-size:50px"""">N = 1</p>","T",0,69,961.799999952316,0,"agree",18,19,17,20,18,"35","male","everything is clear","Very Strong Agreement","Strong Agreement","Slight Agreement","Moderate Agreement","Very Strong Agreement","Strong Agreement","Very Strong Agreement","Strong Agreement","Very Strong Agreement","Very Strong Agreement","Strong Agreement","Very Strong Agreement","Strong Agreement","Very Strong Agreement","Strong Agreement","Moderate Agreement","Moderate Agreement","Very Strong Agreement"
"9","A2AXY7I6TCRVP5:32Z9ZLUT1MQ7SRJ2ZS9E4ZVH1HTHO9","practice",1,9,1,"NA","<p style=""font-size:100px""><b>B</b></p><p style=""position: absolute; top: 30px; right: 30px; text-align:right; font-size:50px"""">N = 1</p>","B",0,69,1166.09999990463,0,"agree",18,19,17,20,18,"35","male","everything is clear","Very Strong Agreement","Strong Agreement","Slight Agreement","Moderate Agreement","Very Strong Agreement","Strong Agreement","Very Strong Agreement","Strong Agreement","Very Strong Agreement","Very Strong Agreement","Strong Agreement","Very Strong Agreement","Strong Agreement","Very Strong Agreement","Strong Agreement","Moderate Agreement","Moderate Agreement","Very Strong Agreement"
"10","A2AXY7I6TCRVP5:32Z9ZLUT1MQ7SRJ2ZS9E4ZVH1HTHO9","practice",1,10,1,"NA","<p style=""font-size:100px""><b>D</b></p><p style=""position: absolute; top: 30px; right: 30px; text-align:right; font-size:50px"""">N = 1</p>","D",0,73,942.199999809265,1,"agree",18,19,17,20,18,"35","male","everything is clear","Very Strong Agreement","Strong Agreement","Slight Agreement","Moderate Agreement","Very Strong Agreement","Strong Agreement","Very Strong Agreement","Strong Agreement","Very Strong Agreement","Very Strong Agreement","Strong Agreement","Very Strong Agreement","Strong Agreement","Very Strong Agreement","Strong Agreement","Moderate Agreement","Moderate Agreement","Very Strong Agreement"
"11","A2AXY7I6TCRVP5:32Z9ZLUT1MQ7SRJ2ZS9E4ZVH1HTHO9","practice",1,11,1,"NA","<p style=""font-size:100px""><b>D</b></p><p style=""position: absolute; top: 30px; right: 30px; text-align:right; font-size:50px"""">N = 1</p>","D",1,69,791,1,"agree",18,19,17,20,18,"35","male","everything is clear","Very Strong Agreement","Strong Agreement","Slight Agreement","Moderate Agreement","Very Strong Agreement","Strong Agreement","Very Strong Agreement","Strong Agreement","Very Strong Agreement","Very Strong Agreement","Strong Agreement","Very Strong Agreement","Strong Agreement","Very Strong Agreement","Strong Agreement","Moderate Agreement","Moderate Agreement","Very Strong Agreement"
"12","A2AXY7I6TCRVP5:32Z9ZLUT1MQ7SRJ2ZS9E4ZVH1HTHO9","practice",1,12,1,"NA","<p style=""font-size:100px""><b>P</b></p><p style=""position: absolute; top: 30px; right: 30px; text-align:right; font-size:50px"""">N = 1</p>","P",0,73,987.900000095367,1,"agree",18,19,17,20,18,"35","male","everything is clear","Very Strong Agreement","Strong Agreement","Slight Agreement","Moderate Agreement","Very Strong Agreement","Strong Agreement","Very Strong Agreement","Strong Agreement","Very Strong Agreement","Very Strong Agreement","Strong Agreement","Very Strong Agreement","Strong Agreement","Very Strong Agreement","Strong Agreement","Moderate Agreement","Moderate Agreement","Very Strong Agreement"
"13","A2AXY7I6TCRVP5:32Z9ZLUT1MQ7SRJ2ZS9E4ZVH1HTHO9","practice",2,1,2,"NA","<p style=""font-size:100px""><b>B</b></p><p style=""position: absolute; top: 30px; right: 30px; text-align:right; font-size:50px"""">N = 2</p>","B",0,69,1304.40000009537,0,"agree",18,19,17,20,18,"35","male","everything is clear","Very Strong Agreement","Strong Agreement","Slight Agreement","Moderate Agreement","Very Strong Agreement","Strong Agreement","Very Strong Agreement","Strong Agreement","Very Strong Agreement","Very Strong Agreement","Strong Agreement","Very Strong Agreement","Strong Agreement","Very Strong Agreement","Strong Agreement","Moderate Agreement","Moderate Agreement","Very Strong Agreement"
"14","A2AXY7I6TCRVP5:32Z9ZLUT1MQ7SRJ2ZS9E4ZVH1HTHO9","practice",2,2,2,"NA","<p style=""font-size:100px""><b>v</b></p><p style=""position: absolute; top: 30px; right: 30px; text-align:right; font-size:50px"""">N = 2</p>","v",0,73,986.5,1,"agree",18,19,17,20,18,"35","male","everything is clear","Very Strong Agreement","Strong Agreement","Slight Agreement","Moderate Agreement","Very Strong Agreement","Strong Agreement","Very Strong Agreement","Strong Agreement","Very Strong Agreement","Very Strong Agreement","Strong Agreement","Very Strong Agreement","Strong Agreement","Very Strong Agreement","Strong Agreement","Moderate Agreement","Moderate Agreement","Very Strong Agreement"
"15","A2AXY7I6TCRVP5:32Z9ZLUT1MQ7SRJ2ZS9E4ZVH1HTHO9","practice",2,3,2,"NA","<p style=""font-size:100px""><b>B</b></p><p style=""position: absolute; top: 30px; right: 30px; text-align:right; font-size:50px"""">N = 2</p>","B",1,73,885,0,"agree",18,19,17,20,18,"35","male","everything is clear","Very Strong Agreement","Strong Agreement","Slight Agreement","Moderate Agreement","Very Strong Agreement","Strong Agreement","Very Strong Agreement","Strong Agreement","Very Strong Agreement","Very Strong Agreement","Strong Agreement","Very Strong Agreement","Strong Agreement","Very Strong Agreement","Strong Agreement","Moderate Agreement","Moderate Agreement","Very Strong Agreement"
"16","A2AXY7I6TCRVP5:32Z9ZLUT1MQ7SRJ2ZS9E4ZVH1HTHO9","practice",2,4,2,"NA","<p style=""font-size:100px""><b>t</b></p><p style=""position: absolute; top: 30px; right: 30px; text-align:right; font-size:50px"""">N = 2</p>","t",0,69,829.900000095367,0,"agree",18,19,17,20,18,"35","male","everything is clear","Very Strong Agreement","Strong Agreement","Slight Agreement","Moderate Agreement","Very Strong Agreement","Strong Agreement","Very Strong Agreement","Strong Agreement","Very Strong Agreement","Very Strong Agreement","Strong Agreement","Very Strong Agreement","Strong Agreement","Very Strong Agreement","Strong Agreement","Moderate Agreement","Moderate Agreement","Very Strong Agreement"
"17","A2AXY7I6TCRVP5:32Z9ZLUT1MQ7SRJ2ZS9E4ZVH1HTHO9","practice",2,5,2,"NA","<p style=""font-size:100px""><b>G</b></p><p style=""position: absolute; top: 30px; right: 30px; text-align:right; font-size:50px"""">N = 2</p>","G",0,69,1007,0,"agree",18,19,17,20,18,"35","male","everything is clear","Very Strong Agreement","Strong Agreement","Slight Agreement","Moderate Agreement","Very Strong Agreement","Strong Agreement","Very Strong Agreement","Strong Agreement","Very Strong Agreement","Very Strong Agreement","Strong Agreement","Very Strong Agreement","Strong Agreement","Very Strong Agreement","Strong Agreement","Moderate Agreement","Moderate Agreement","Very Strong Agreement"
"18","A2AXY7I6TCRVP5:32Z9ZLUT1MQ7SRJ2ZS9E4ZVH1HTHO9","practice",2,6,2,"NA","<p style=""font-size:100px""><b>v</b></p><p style=""position: absolute; top: 30px; right: 30px; text-align:right; font-size:50px"""">N = 2</p>","v",0,73,712.799999952316,1,"agree",18,19,17,20,18,"35","male","everything is clear","Very Strong Agreement","Strong Agreement","Slight Agreement","Moderate Agreement","Very Strong Agreement","Strong Agreement","Very Strong Agreement","Strong Agreement","Very Strong Agreement","Very Strong Agreement","Strong Agreement","Very Strong Agreement","Strong Agreement","Very Strong Agreement","Strong Agreement","Moderate Agreement","Moderate Agreement","Very Strong Agreement"
"19","A2AXY7I6TCRVP5:32Z9ZLUT1MQ7SRJ2ZS9E4ZVH1HTHO9","practice",2,7,2,"NA","<p style=""font-size:100px""><b>G</b></p><p style=""position: absolute; top: 30px; right: 30px; text-align:right; font-size:50px"""">N = 2</p>","G",1,69,919.700000047684,1,"agree",18,19,17,20,18,"35","male","everything is clear","Very Strong Agreement","Strong Agreement","Slight Agreement","Moderate Agreement","Very Strong Agreement","Strong Agreement","Very Strong Agreement","Strong Agreement","Very Strong Agreement","Very Strong Agreement","Strong Agreement","Very Strong Agreement","Strong Agreement","Very Strong Agreement","Strong Agreement","Moderate Agreement","Moderate Agreement","Very Strong Agreement"
"20","A2AXY7I6TCRVP5:32Z9ZLUT1MQ7SRJ2ZS9E4ZVH1HTHO9","practice",2,8,2,"NA","<p style=""font-size:100px""><b>B</b></p><p style=""position: absolute; top: 30px; right: 30px; text-align:right; font-size:50px"""">N = 2</p>","B",0,69,887.099999904633,0,"agree",18,19,17,20,18,"35","male","everything is clear","Very Strong Agreement","Strong Agreement","Slight Agreement","Moderate Agreement","Very Strong Agreement","Strong Agreement","Very Strong Agreement","Strong Agreement","Very Strong Agreement","Very Strong Agreement","Strong Agreement","Very Strong Agreement","Strong Agreement","Very Strong Agreement","Strong Agreement","Moderate Agreement","Moderate Agreement","Very Strong Agreement"
"21","A2AXY7I6TCRVP5:32Z9ZLUT1MQ7SRJ2ZS9E4ZVH1HTHO9","practice",2,9,2,"NA","<p style=""font-size:100px""><b>d</b></p><p style=""position: absolute; top: 30px; right: 30px; text-align:right; font-size:50px"""">N = 2</p>","d",0,73,784.899999856949,1,"agree",18,19,17,20,18,"35","male","everything is clear","Very Strong Agreement","Strong Agreement","Slight Agreement","Moderate Agreement","Very Strong Agreement","Strong Agreement","Very Strong Agreement","Strong Agreement","Very Strong Agreement","Very Strong Agreement","Strong Agreement","Very Strong Agreement","Strong Agreement","Very Strong Agreement","Strong Agreement","Moderate Agreement","Moderate Agreement","Very Strong Agreement"
"22","A2AXY7I6TCRVP5:32Z9ZLUT1MQ7SRJ2ZS9E4ZVH1HTHO9","practice",2,10,2,"NA","<p style=""font-size:100px""><b>B</b></p><p style=""position: absolute; top: 30px; right: 30px; text-align:right; font-size:50px"""">N = 2</p>","B",1,73,2276.20000004768,0,"agree",18,19,17,20,18,"35","male","everything is clear","Very Strong Agreement","Strong Agreement","Slight Agreement","Moderate Agreement","Very Strong Agreement","Strong Agreement","Very Strong Agreement","Strong Agreement","Very Strong Agreement","Very Strong Agreement","Strong Agreement","Very Strong Agreement","Strong Agreement","Very Strong Agreement","Strong Agreement","Moderate Agreement","Moderate Agreement","Very Strong Agreement"
"23","A2AXY7I6TCRVP5:32Z9ZLUT1MQ7SRJ2ZS9E4ZVH1HTHO9","practice",2,11,2,"NA","<p style=""font-size:100px""><b>b</b></p><p style=""position: absolute; top: 30px; right: 30px; text-align:right; font-size:50px"""">N = 2</p>","b",0,69,1173.09999990463,0,"agree",18,19,17,20,18,"35","male","everything is clear","Very Strong Agreement","Strong Agreement","Slight Agreement","Moderate Agreement","Very Strong Agreement","Strong Agreement","Very Strong Agreement","Strong Agreement","Very Strong Agreement","Very Strong Agreement","Strong Agreement","Very Strong Agreement","Strong Agreement","Very Strong Agreement","Strong Agreement","Moderate Agreement","Moderate Agreement","Very Strong Agreement"
"24","A2AXY7I6TCRVP5:32Z9ZLUT1MQ7SRJ2ZS9E4ZVH1HTHO9","practice",2,12,2,"NA","<p style=""font-size:100px""><b>B</b></p><p style=""position: absolute; top: 30px; right: 30px; text-align:right; font-size:50px"""">N = 2</p>","B",1,69,652.799999952316,1,"agree",18,19,17,20,18,"35","male","everything is clear","Very Strong Agreement","Strong Agreement","Slight Agreement","Moderate Agreement","Very Strong Agreement","Strong Agreement","Very Strong Agreement","Strong Agreement","Very Strong Agreement","Very Strong Agreement","Strong Agreement","Very Strong Agreement","Strong Agreement","Very Strong Agreement","Strong Agreement","Moderate Agreement","Moderate Agreement","Very Strong Agreement"
"25","A2AXY7I6TCRVP5:32Z9ZLUT1MQ7SRJ2ZS9E4ZVH1HTHO9","practice",3,1,3,"NA","<p style=""font-size:100px""><b>d</b></p><p style=""position: absolute; top: 30px; right: 30px; text-align:right; font-size:50px"""">N = 3</p>","d",0,73,2369.90000009537,1,"agree",18,19,17,20,18,"35","male","everything is clear","Very Strong Agreement","Strong Agreement","Slight Agreement","Moderate Agreement","Very Strong Agreement","Strong Agreement","Very Strong Agreement","Strong Agreement","Very Strong Agreement","Very Strong Agreement","Strong Agreement","Very Strong Agreement","Strong Agreement","Very Strong Agreement","Strong Agreement","Moderate Agreement","Moderate Agreement","Very Strong Agreement"
"26","A2AXY7I6TCRVP5:32Z9ZLUT1MQ7SRJ2ZS9E4ZVH1HTHO9","practice",3,2,3,"NA","<p style=""font-size:100px""><b>P</b></p><p style=""position: absolute; top: 30px; right: 30px; text-align:right; font-size:50px"""">N = 3</p>","P",0,69,1839.59999990463,0,"agree",18,19,17,20,18,"35","male","everything is clear","Very Strong Agreement","Strong Agreement","Slight Agreement","Moderate Agreement","Very Strong Agreement","Strong Agreement","Very Strong Agreement","Strong Agreement","Very Strong Agreement","Very Strong Agreement","Strong Agreement","Very Strong Agreement","Strong Agreement","Very Strong Agreement","Strong Agreement","Moderate Agreement","Moderate Agreement","Very Strong Agreement"
"27","A2AXY7I6TCRVP5:32Z9ZLUT1MQ7SRJ2ZS9E4ZVH1HTHO9","practice",3,3,3,"NA","<p style=""font-size:100px""><b>b</b></p><p style=""position: absolute; top: 30px; right: 30px; text-align:right; font-size:50px"""">N = 3</p>","b",0,73,935.900000095367,1,"agree",18,19,17,20,18,"35","male","everything is clear","Very Strong Agreement","Strong Agreement","Slight Agreement","Moderate Agreement","Very Strong Agreement","Strong Agreement","Very Strong Agreement","Strong Agreement","Very Strong Agreement","Very Strong Agreement","Strong Agreement","Very Strong Agreement","Strong Agreement","Very Strong Agreement","Strong Agreement","Moderate Agreement","Moderate Agreement","Very Strong Agreement"
"28","A2AXY7I6TCRVP5:32Z9ZLUT1MQ7SRJ2ZS9E4ZVH1HTHO9","practice",3,4,3,"NA","<p style=""font-size:100px""><b>V</b></p><p style=""position: absolute; top: 30px; right: 30px; text-align:right; font-size:50px"""">N = 3</p>","V",0,73,1478.90000009537,1,"agree",18,19,17,20,18,"35","male","everything is clear","Very Strong Agreement","Strong Agreement","Slight Agreement","Moderate Agreement","Very Strong Agreement","Strong Agreement","Very Strong Agreement","Strong Agreement","Very Strong Agreement","Very Strong Agreement","Strong Agreement","Very Strong Agreement","Strong Agreement","Very Strong Agreement","Strong Agreement","Moderate Agreement","Moderate Agreement","Very Strong Agreement"
"29","A2AXY7I6TCRVP5:32Z9ZLUT1MQ7SRJ2ZS9E4ZVH1HTHO9","practice",3,5,3,"NA","<p style=""font-size:100px""><b>t</b></p><p style=""position: absolute; top: 30px; right: 30px; text-align:right; font-size:50px"""">N = 3</p>","t",0,73,860.099999904633,1,"agree",18,19,17,20,18,"35","male","everything is clear","Very Strong Agreement","Strong Agreement","Slight Agreement","Moderate Agreement","Very Strong Agreement","Strong Agreement","Very Strong Agreement","Strong Agreement","Very Strong Agreement","Very Strong Agreement","Strong Agreement","Very Strong Agreement","Strong Agreement","Very Strong Agreement","Strong Agreement","Moderate Agreement","Moderate Agreement","Very Strong Agreement"
"30","A2AXY7I6TCRVP5:32Z9ZLUT1MQ7SRJ2ZS9E4ZVH1HTHO9","practice",3,6,3,"NA","<p style=""font-size:100px""><b>v</b></p><p style=""position: absolute; top: 30px; right: 30px; text-align:right; font-size:50px"""">N = 3</p>","v",0,73,1301.40000009537,1,"agree",18,19,17,20,18,"35","male","everything is clear","Very Strong Agreement","Strong Agreement","Slight Agreement","Moderate Agreement","Very Strong Agreement","Strong Agreement","Very Strong Agreement","Strong Agreement","Very Strong Agreement","Very Strong Agreement","Strong Agreement","Very Strong Agreement","Strong Agreement","Very Strong Agreement","Strong Agreement","Moderate Agreement","Moderate Agreement","Very Strong Agreement"
"31","A2AXY7I6TCRVP5:32Z9ZLUT1MQ7SRJ2ZS9E4ZVH1HTHO9","practice",3,7,3,"NA","<p style=""font-size:100px""><b>V</b></p><p style=""position: absolute; top: 30px; right: 30px; text-align:right; font-size:50px"""">N = 3</p>","V",1,73,615.5,0,"agree",18,19,17,20,18,"35","male","everything is clear","Very Strong Agreement","Strong Agreement","Slight Agreement","Moderate Agreement","Very Strong Agreement","Strong Agreement","Very Strong Agreement","Strong Agreement","Very Strong Agreement","Very Strong Agreement","Strong Agreement","Very Strong Agreement","Strong Agreement","Very Strong Agreement","Strong Agreement","Moderate Agreement","Moderate Agreement","Very Strong Agreement"
"32","A2AXY7I6TCRVP5:32Z9ZLUT1MQ7SRJ2ZS9E4ZVH1HTHO9","practice",3,8,3,"NA","<p style=""font-size:100px""><b>d</b></p><p style=""position: absolute; top: 30px; right: 30px; text-align:right; font-size:50px"""">N = 3</p>","d",0,73,1127,1,"agree",18,19,17,20,18,"35","male","everything is clear","Very Strong Agreement","Strong Agreement","Slight Agreement","Moderate Agreement","Very Strong Agreement","Strong Agreement","Very Strong Agreement","Strong Agreement","Very Strong Agreement","Very Strong Agreement","Strong Agreement","Very Strong Agreement","Strong Agreement","Very Strong Agreement","Strong Agreement","Moderate Agreement","Moderate Agreement","Very Strong Agreement"
"33","A2AXY7I6TCRVP5:32Z9ZLUT1MQ7SRJ2ZS9E4ZVH1HTHO9","practice",3,9,3,"NA","<p style=""font-size:100px""><b>v</b></p><p style=""position: absolute; top: 30px; right: 30px; text-align:right; font-size:50px"""">N = 3</p>","v",1,73,1078.09999990463,0,"agree",18,19,17,20,18,"35","male","everything is clear","Very Strong Agreement","Strong Agreement","Slight Agreement","Moderate Agreement","Very Strong Agreement","Strong Agreement","Very Strong Agreement","Strong Agreement","Very Strong Agreement","Very Strong Agreement","Strong Agreement","Very Strong Agreement","Strong Agreement","Very Strong Agreement","Strong Agreement","Moderate Agreement","Moderate Agreement","Very Strong Agreement"
"34","A2AXY7I6TCRVP5:32Z9ZLUT1MQ7SRJ2ZS9E4ZVH1HTHO9","practice",3,10,3,"NA","<p style=""font-size:100px""><b>V</b></p><p style=""position: absolute; top: 30px; right: 30px; text-align:right; font-size:50px"""">N = 3</p>","V",1,69,881,1,"agree",18,19,17,20,18,"35","male","everything is clear","Very Strong Agreement","Strong Agreement","Slight Agreement","Moderate Agreement","Very Strong Agreement","Strong Agreement","Very Strong Agreement","Strong Agreement","Very Strong Agreement","Very Strong Agreement","Strong Agreement","Very Strong Agreement","Strong Agreement","Very Strong Agreement","Strong Agreement","Moderate Agreement","Moderate Agreement","Very Strong Agreement"
"35","A2AXY7I6TCRVP5:32Z9ZLUT1MQ7SRJ2ZS9E4ZVH1HTHO9","practice",3,11,3,"NA","<p style=""font-size:100px""><b>p</b></p><p style=""position: absolute; top: 30px; right: 30px; text-align:right; font-size:50px"""">N = 3</p>","p",0,69,1366.40000009537,0,"agree",18,19,17,20,18,"35","male","everything is clear","Very Strong Agreement","Strong Agreement","Slight Agreement","Moderate Agreement","Very Strong Agreement","Strong Agreement","Very Strong Agreement","Strong Agreement","Very Strong Agreement","Very Strong Agreement","Strong Agreement","Very Strong Agreement","Strong Agreement","Very Strong Agreement","Strong Agreement","Moderate Agreement","Moderate Agreement","Very Strong Agreement"
"36","A2AXY7I6TCRVP5:32Z9ZLUT1MQ7SRJ2ZS9E4ZVH1HTHO9","practice",3,12,3,"NA","<p style=""font-size:100px""><b>v</b></p><p style=""position: absolute; top: 30px; right: 30px; text-align:right; font-size:50px"""">N = 3</p>","v",1,73,688.400000095367,0,"agree",18,19,17,20,18,"35","male","everything is clear","Very Strong Agreement","Strong Agreement","Slight Agreement","Moderate Agreement","Very Strong Agreement","Strong Agreement","Very Strong Agreement","Strong Agreement","Very Strong Agreement","Very Strong Agreement","Strong Agreement","Very Strong Agreement","Strong Agreement","Very Strong Agreement","Strong Agreement","Moderate Agreement","Moderate Agreement","Very Strong Agreement"
"37","A2AXY7I6TCRVP5:32Z9ZLUT1MQ7SRJ2ZS9E4ZVH1HTHO9","1",1,1,2,"50","<p style=""font-size:100px""><b>T</b></p><p style=""position: absolute; top: 30px; right: 30px; text-align:right; font-size:50px"""">N = 2</p>","T",0,69,870.099999904633,0,"agree",18,19,17,20,18,"35","male","everything is clear","Very Strong Agreement","Strong Agreement","Slight Agreement","Moderate Agreement","Very Strong Agreement","Strong Agreement","Very Strong Agreement","Strong Agreement","Very Strong Agreement","Very Strong Agreement","Strong Agreement","Very Strong Agreement","Strong Agreement","Very Strong Agreement","Strong Agreement","Moderate Agreement","Moderate Agreement","Very Strong Agreement"
"38","A2AXY7I6TCRVP5:32Z9ZLUT1MQ7SRJ2ZS9E4ZVH1HTHO9","1",1,2,2,"50","<p style=""font-size:100px""><b>d</b></p><p style=""position: absolute; top: 30px; right: 30px; text-align:right; font-size:50px"""">N = 2</p>","d",0,73,973.900000095367,1,"agree",18,19,17,20,18,"35","male","everything is clear","Very Strong Agreement","Strong Agreement","Slight Agreement","Moderate Agreement","Very Strong Agreement","Strong Agreement","Very Strong Agreement","Strong Agreement","Very Strong Agreement","Very Strong Agreement","Strong Agreement","Very Strong Agreement","Strong Agreement","Very Strong Agreement","Strong Agreement","Moderate Agreement","Moderate Agreement","Very Strong Agreement"
"39","A2AXY7I6TCRVP5:32Z9ZLUT1MQ7SRJ2ZS9E4ZVH1HTHO9","1",1,3,2,"50","<p style=""font-size:100px""><b>T</b></p><p style=""position: absolute; top: 30px; right: 30px; text-align:right; font-size:50px"""">N = 2</p>","T",0,NA,NA,0,"agree",18,19,17,20,18,"35","male","everything is clear","Very Strong Agreement","Strong Agreement","Slight Agreement","Moderate Agreement","Very Strong Agreement","Strong Agreement","Very Strong Agreement","Strong Agreement","Very Strong Agreement","Very Strong Agreement","Strong Agreement","Very Strong Agreement","Strong Agreement","Very Strong Agreement","Strong Agreement","Moderate Agreement","Moderate Agreement","Very Strong Agreement"
"40","A2AXY7I6TCRVP5:32Z9ZLUT1MQ7SRJ2ZS9E4ZVH1HTHO9","1",1,4,2,"50","<p style=""font-size:100px""><b>d</b></p><p style=""position: absolute; top: 30px; right: 30px; text-align:right; font-size:50px"""">N = 2</p>","d",0,NA,NA,0,"agree",18,19,17,20,18,"35","male","everything is clear","Very Strong Agreement","Strong Agreement","Slight Agreement","Moderate Agreement","Very Strong Agreement","Strong Agreement","Very Strong Agreement","Strong Agreement","Very Strong Agreement","Very Strong Agreement","Strong Agreement","Very Strong Agreement","Strong Agreement","Very Strong Agreement","Strong Agreement","Moderate Agreement","Moderate Agreement","Very Strong Agreement"
"41","A2AXY7I6TCRVP5:32Z9ZLUT1MQ7SRJ2ZS9E4ZVH1HTHO9","1",1,5,2,"50","<p style=""font-size:100px""><b>g</b></p><p style=""position: absolute; top: 30px; right: 30px; text-align:right; font-size:50px"""">N = 2</p>","g",0,73,614.400000095367,1,"agree",18,19,17,20,18,"35","male","everything is clear","Very Strong Agreement","Strong Agreement","Slight Agreement","Moderate Agreement","Very Strong Agreement","Strong Agreement","Very Strong Agreement","Strong Agreement","Very Strong Agreement","Very Strong Agreement","Strong Agreement","Very Strong Agreement","Strong Agreement","Very Strong Agreement","Strong Agreement","Moderate Agreement","Moderate Agreement","Very Strong Agreement"
"42","A2AXY7I6TCRVP5:32Z9ZLUT1MQ7SRJ2ZS9E4ZVH1HTHO9","1",1,6,2,"50","<p style=""font-size:100px""><b>d</b></p><p style=""position: absolute; top: 30px; right: 30px; text-align:right; font-size:50px"""">N = 2</p>","d",0,73,735.599999904633,1,"agree",18,19,17,20,18,"35","male","everything is clear","Very Strong Agreement","Strong Agreement","Slight Agreement","Moderate Agreement","Very Strong Agreement","Strong Agreement","Very Strong Agreement","Strong Agreement","Very Strong Agreement","Very Strong Agreement","Strong Agreement","Very Strong Agreement","Strong Agreement","Very Strong Agreement","Strong Agreement","Moderate Agreement","Moderate Agreement","Very Strong Agreement"
"43","A2AXY7I6TCRVP5:32Z9ZLUT1MQ7SRJ2ZS9E4ZVH1HTHO9","1",1,7,2,"50","<p style=""font-size:100px""><b>B</b></p><p style=""position: absolute; top: 30px; right: 30px; text-align:right; font-size:50px"""">N = 2</p>","B",0,73,405.900000095367,1,"agree",18,19,17,20,18,"35","male","everything is clear","Very Strong Agreement","Strong Agreement","Slight Agreement","Moderate Agreement","Very Strong Agreement","Strong Agreement","Very Strong Agreement","Strong Agreement","Very Strong Agreement","Very Strong Agreement","Strong Agreement","Very Strong Agreement","Strong Agreement","Very Strong Agreement","Strong Agreement","Moderate Agreement","Moderate Agreement","Very Strong Agreement"
"44","A2AXY7I6TCRVP5:32Z9ZLUT1MQ7SRJ2ZS9E4ZVH1HTHO9","1",1,8,2,"50","<p style=""font-size:100px""><b>P</b></p><p style=""position: absolute; top: 30px; right: 30px; text-align:right; font-size:50px"""">N = 2</p>","P",0,73,263.099999904633,1,"agree",18,19,17,20,18,"35","male","everything is clear","Very Strong Agreement","Strong Agreement","Slight Agreement","Moderate Agreement","Very Strong Agreement","Strong Agreement","Very Strong Agreement","Strong Agreement","Very Strong Agreement","Very Strong Agreement","Strong Agreement","Very Strong Agreement","Strong Agreement","Very Strong Agreement","Strong Agreement","Moderate Agreement","Moderate Agreement","Very Strong Agreement"
"45","A2AXY7I6TCRVP5:32Z9ZLUT1MQ7SRJ2ZS9E4ZVH1HTHO9","1",1,9,2,"50","<p style=""font-size:100px""><b>d</b></p><p style=""position: absolute; top: 30px; right: 30px; text-align:right; font-size:50px"""">N = 2</p>","d",0,69,279.799999952316,0,"agree",18,19,17,20,18,"35","male","everything is clear","Very Strong Agreement","Strong Agreement","Slight Agreement","Moderate Agreement","Very Strong Agreement","Strong Agreement","Very Strong Agreement","Strong Agreement","Very Strong Agreement","Very Strong Agreement","Strong Agreement","Very Strong Agreement","Strong Agreement","Very Strong Agreement","Strong Agreement","Moderate Agreement","Moderate Agreement","Very Strong Agreement"
"46","A2AXY7I6TCRVP5:32Z9ZLUT1MQ7SRJ2ZS9E4ZVH1HTHO9","1",1,10,2,"50","<p style=""font-size:100px""><b>V</b></p><p style=""position: absolute; top: 30px; right: 30px; text-align:right; font-size:50px"""">N = 2</p>","V",0,69,334.900000095367,0,"agree",18,19,17,20,18,"35","male","everything is clear","Very Strong Agreement","Strong Agreement","Slight Agreement","Moderate Agreement","Very Strong Agreement","Strong Agreement","Very Strong Agreement","Strong Agreement","Very Strong Agreement","Very Strong Agreement","Strong Agreement","Very Strong Agreement","Strong Agreement","Very Strong Agreement","Strong Agreement","Moderate Agreement","Moderate Agreement","Very Strong Agreement"
"47","A2AXY7I6TCRVP5:32Z9ZLUT1MQ7SRJ2ZS9E4ZVH1HTHO9","1",1,11,2,"50","<p style=""font-size:100px""><b>d</b></p><p style=""position: absolute; top: 30px; right: 30px; text-align:right; font-size:50px"""">N = 2</p>","d",0,73,181.799999952316,1,"agree",18,19,17,20,18,"35","male","everything is clear","Very Strong Agreement","Strong Agreement","Slight Agreement","Moderate Agreement","Very Strong Agreement","Strong Agreement","Very Strong Agreement","Strong Agreement","Very Strong Agreement","Very Strong Agreement","Strong Agreement","Very Strong Agreement","Strong Agreement","Very Strong Agreement","Strong Agreement","Moderate Agreement","Moderate Agreement","Very Strong Agreement"
"48","A2AXY7I6TCRVP5:32Z9ZLUT1MQ7SRJ2ZS9E4ZVH1HTHO9","1",1,12,2,"50","<p style=""font-size:100px""><b>t</b></p><p style=""position: absolute; top: 30px; right: 30px; text-align:right; font-size:50px"""">N = 2</p>","t",0,73,21.7000000476837,1,"agree",18,19,17,20,18,"35","male","everything is clear","Very Strong Agreement","Strong Agreement","Slight Agreement","Moderate Agreement","Very Strong Agreement","Strong Agreement","Very Strong Agreement","Strong Agreement","Very Strong Agreement","Very Strong Agreement","Strong Agreement","Very Strong Agreement","Strong Agreement","Very Strong Agreement","Strong Agreement","Moderate Agreement","Moderate Agreement","Very Strong Agreement"
"49","A2AXY7I6TCRVP5:32Z9ZLUT1MQ7SRJ2ZS9E4ZVH1HTHO9","1",2,1,2,"5","<p style=""font-size:100px""><b>V</b></p><p style=""position: absolute; top: 30px; right: 30px; text-align:right; font-size:50px"""">N = 2</p>","V",0,69,658.200000047684,0,"agree",19,19,19,19,19,"35","male","everything is clear","Very Strong Agreement","Strong Agreement","Slight Agreement","Moderate Agreement","Very Strong Agreement","Strong Agreement","Very Strong Agreement","Strong Agreement","Very Strong Agreement","Very Strong Agreement","Strong Agreement","Very Strong Agreement","Strong Agreement","Very Strong Agreement","Strong Agreement","Moderate Agreement","Moderate Agreement","Very Strong Agreement"
"50","A2AXY7I6TCRVP5:32Z9ZLUT1MQ7SRJ2ZS9E4ZVH1HTHO9","1",2,2,2,"5","<p style=""font-size:100px""><b>t</b></p><p style=""position: absolute; top: 30px; right: 30px; text-align:right; font-size:50px"""">N = 2</p>","t",0,73,744.200000047684,1,"agree",19,19,19,19,19,"35","male","everything is clear","Very Strong Agreement","Strong Agreement","Slight Agreement","Moderate Agreement","Very Strong Agreement","Strong Agreement","Very Strong Agreement","Strong Agreement","Very Strong Agreement","Very Strong Agreement","Strong Agreement","Very Strong Agreement","Strong Agreement","Very Strong Agreement","Strong Agreement","Moderate Agreement","Moderate Agreement","Very Strong Agreement"
"51","A2AXY7I6TCRVP5:32Z9ZLUT1MQ7SRJ2ZS9E4ZVH1HTHO9","1",2,3,2,"5","<p style=""font-size:100px""><b>D</b></p><p style=""position: absolute; top: 30px; right: 30px; text-align:right; font-size:50px"""">N = 2</p>","D",0,73,557.300000190735,1,"agree",19,19,19,19,19,"35","male","everything is clear","Very Strong Agreement","Strong Agreement","Slight Agreement","Moderate Agreement","Very Strong Agreement","Strong Agreement","Very Strong Agreement","Strong Agreement","Very Strong Agreement","Very Strong Agreement","Strong Agreement","Very Strong Agreement","Strong Agreement","Very Strong Agreement","Strong Agreement","Moderate Agreement","Moderate Agreement","Very Strong Agreement"
"52","A2AXY7I6TCRVP5:32Z9ZLUT1MQ7SRJ2ZS9E4ZVH1HTHO9","1",2,4,2,"5","<p style=""font-size:100px""><b>t</b></p><p style=""position: absolute; top: 30px; right: 30px; text-align:right; font-size:50px"""">N = 2</p>","t",0,73,779,1,"agree",19,19,19,19,19,"35","male","everything is clear","Very Strong Agreement","Strong Agreement","Slight Agreement","Moderate Agreement","Very Strong Agreement","Strong Agreement","Very Strong Agreement","Strong Agreement","Very Strong Agreement","Very Strong Agreement","Strong Agreement","Very Strong Agreement","Strong Agreement","Very Strong Agreement","Strong Agreement","Moderate Agreement","Moderate Agreement","Very Strong Agreement"
"53","A2AXY7I6TCRVP5:32Z9ZLUT1MQ7SRJ2ZS9E4ZVH1HTHO9","1",2,5,2,"5","<p style=""font-size:100px""><b>b</b></p><p style=""position: absolute; top: 30px; right: 30px; text-align:right; font-size:50px"""">N = 2</p>","b",0,73,642.700000047684,1,"agree",19,19,19,19,19,"35","male","everything is clear","Very Strong Agreement","Strong Agreement","Slight Agreement","Moderate Agreement","Very Strong Agreement","Strong Agreement","Very Strong Agreement","Strong Agreement","Very Strong Agreement","Very Strong Agreement","Strong Agreement","Very Strong Agreement","Strong Agreement","Very Strong Agreement","Strong Agreement","Moderate Agreement","Moderate Agreement","Very Strong Agreement"
"54","A2AXY7I6TCRVP5:32Z9ZLUT1MQ7SRJ2ZS9E4ZVH1HTHO9","1",2,6,2,"5","<p style=""font-size:100px""><b>g</b></p><p style=""position: absolute; top: 30px; right: 30px; text-align:right; font-size:50px"""">N = 2</p>","g",0,69,793.700000047684,0,"agree",19,19,19,19,19,"35","male","everything is clear","Very Strong Agreement","Strong Agreement","Slight Agreement","Moderate Agreement","Very Strong Agreement","Strong Agreement","Very Strong Agreement","Strong Agreement","Very Strong Agreement","Very Strong Agreement","Strong Agreement","Very Strong Agreement","Strong Agreement","Very Strong Agreement","Strong Agreement","Moderate Agreement","Moderate Agreement","Very Strong Agreement"
"55","A2AXY7I6TCRVP5:32Z9ZLUT1MQ7SRJ2ZS9E4ZVH1HTHO9","1",2,7,2,"5","<p style=""font-size:100px""><b>d</b></p><p style=""position: absolute; top: 30px; right: 30px; text-align:right; font-size:50px"""">N = 2</p>","d",0,73,520.599999904633,1,"agree",19,19,19,19,19,"35","male","everything is clear","Very Strong Agreement","Strong Agreement","Slight Agreement","Moderate Agreement","Very Strong Agreement","Strong Agreement","Very Strong Agreement","Strong Agreement","Very Strong Agreement","Very Strong Agreement","Strong Agreement","Very Strong Agreement","Strong Agreement","Very Strong Agreement","Strong Agreement","Moderate Agreement","Moderate Agreement","Very Strong Agreement"
"56","A2AXY7I6TCRVP5:32Z9ZLUT1MQ7SRJ2ZS9E4ZVH1HTHO9","1",2,8,2,"5","<p style=""font-size:100px""><b>g</b></p><p style=""position: absolute; top: 30px; right: 30px; text-align:right; font-size:50px"""">N = 2</p>","g",0,73,643.5,1,"agree",19,19,19,19,19,"35","male","everything is clear","Very Strong Agreement","Strong Agreement","Slight Agreement","Moderate Agreement","Very Strong Agreement","Strong Agreement","Very Strong Agreement","Strong Agreement","Very Strong Agreement","Very Strong Agreement","Strong Agreement","Very Strong Agreement","Strong Agreement","Very Strong Agreement","Strong Agreement","Moderate Agreement","Moderate Agreement","Very Strong Agreement"
"57","A2AXY7I6TCRVP5:32Z9ZLUT1MQ7SRJ2ZS9E4ZVH1HTHO9","1",2,9,2,"5","<p style=""font-size:100px""><b>v</b></p><p style=""position: absolute; top: 30px; right: 30px; text-align:right; font-size:50px"""">N = 2</p>","v",0,69,663.599999904633,0,"agree",19,19,19,19,19,"35","male","everything is clear","Very Strong Agreement","Strong Agreement","Slight Agreement","Moderate Agreement","Very Strong Agreement","Strong Agreement","Very Strong Agreement","Strong Agreement","Very Strong Agreement","Very Strong Agreement","Strong Agreement","Very Strong Agreement","Strong Agreement","Very Strong Agreement","Strong Agreement","Moderate Agreement","Moderate Agreement","Very Strong Agreement"
"58","A2AXY7I6TCRVP5:32Z9ZLUT1MQ7SRJ2ZS9E4ZVH1HTHO9","1",2,10,2,"5","<p style=""font-size:100px""><b>g</b></p><p style=""position: absolute; top: 30px; right: 30px; text-align:right; font-size:50px"""">N = 2</p>","g",0,69,518.299999952316,0,"agree",19,19,19,19,19,"35","male","everything is clear","Very Strong Agreement","Strong Agreement","Slight Agreement","Moderate Agreement","Very Strong Agreement","Strong Agreement","Very Strong Agreement","Strong Agreement","Very Strong Agreement","Very Strong Agreement","Strong Agreement","Very Strong Agreement","Strong Agreement","Very Strong Agreement","Strong Agreement","Moderate Agreement","Moderate Agreement","Very Strong Agreement"
"59","A2AXY7I6TCRVP5:32Z9ZLUT1MQ7SRJ2ZS9E4ZVH1HTHO9","1",2,11,2,"5","<p style=""font-size:100px""><b>G</b></p><p style=""position: absolute; top: 30px; right: 30px; text-align:right; font-size:50px"""">N = 2</p>","G",0,NA,NA,0,"agree",19,19,19,19,19,"35","male","everything is clear","Very Strong Agreement","Strong Agreement","Slight Agreement","Moderate Agreement","Very Strong Agreement","Strong Agreement","Very Strong Agreement","Strong Agreement","Very Strong Agreement","Very Strong Agreement","Strong Agreement","Very Strong Agreement","Strong Agreement","Very Strong Agreement","Strong Agreement","Moderate Agreement","Moderate Agreement","Very Strong Agreement"
"60","A2AXY7I6TCRVP5:32Z9ZLUT1MQ7SRJ2ZS9E4ZVH1HTHO9","1",2,12,2,"5","<p style=""font-size:100px""><b>g</b></p><p style=""position: absolute; top: 30px; right: 30px; text-align:right; font-size:50px"""">N = 2</p>","g",0,69,766.800000190735,0,"agree",19,19,19,19,19,"35","male","everything is clear","Very Strong Agreement","Strong Agreement","Slight Agreement","Moderate Agreement","Very Strong Agreement","Strong Agreement","Very Strong Agreement","Strong Agreement","Very Strong Agreement","Very Strong Agreement","Strong Agreement","Very Strong Agreement","Strong Agreement","Very Strong Agreement","Strong Agreement","Moderate Agreement","Moderate Agreement","Very Strong Agreement"
"61","A2AXY7I6TCRVP5:32Z9ZLUT1MQ7SRJ2ZS9E4ZVH1HTHO9","1",3,1,1,"5","<p style=""font-size:100px""><b>D</b></p><p style=""position: absolute; top: 30px; right: 30px; text-align:right; font-size:50px"""">N = 1</p>","D",0,69,638.799999952316,0,"agree",19,18,17,20,18,"35","male","everything is clear","Very Strong Agreement","Strong Agreement","Slight Agreement","Moderate Agreement","Very Strong Agreement","Strong Agreement","Very Strong Agreement","Strong Agreement","Very Strong Agreement","Very Strong Agreement","Strong Agreement","Very Strong Agreement","Strong Agreement","Very Strong Agreement","Strong Agreement","Moderate Agreement","Moderate Agreement","Very Strong Agreement"
"62","A2AXY7I6TCRVP5:32Z9ZLUT1MQ7SRJ2ZS9E4ZVH1HTHO9","1",3,2,1,"5","<p style=""font-size:100px""><b>D</b></p><p style=""position: absolute; top: 30px; right: 30px; text-align:right; font-size:50px"""">N = 1</p>","D",0,69,550.199999809265,0,"agree",19,18,17,20,18,"35","male","everything is clear","Very Strong Agreement","Strong Agreement","Slight Agreement","Moderate Agreement","Very Strong Agreement","Strong Agreement","Very Strong Agreement","Strong Agreement","Very Strong Agreement","Very Strong Agreement","Strong Agreement","Very Strong Agreement","Strong Agreement","Very Strong Agreement","Strong Agreement","Moderate Agreement","Moderate Agreement","Very Strong Agreement"
"63","A2AXY7I6TCRVP5:32Z9ZLUT1MQ7SRJ2ZS9E4ZVH1HTHO9","1",3,3,1,"5","<p style=""font-size:100px""><b>b</b></p><p style=""position: absolute; top: 30px; right: 30px; text-align:right; font-size:50px"""">N = 1</p>","b",0,73,783,1,"agree",19,18,17,20,18,"35","male","everything is clear","Very Strong Agreement","Strong Agreement","Slight Agreement","Moderate Agreement","Very Strong Agreement","Strong Agreement","Very Strong Agreement","Strong Agreement","Very Strong Agreement","Very Strong Agreement","Strong Agreement","Very Strong Agreement","Strong Agreement","Very Strong Agreement","Strong Agreement","Moderate Agreement","Moderate Agreement","Very Strong Agreement"
"64","A2AXY7I6TCRVP5:32Z9ZLUT1MQ7SRJ2ZS9E4ZVH1HTHO9","1",3,4,1,"5","<p style=""font-size:100px""><b>P</b></p><p style=""position: absolute; top: 30px; right: 30px; text-align:right; font-size:50px"""">N = 1</p>","P",0,73,894.799999952316,1,"agree",19,18,17,20,18,"35","male","everything is clear","Very Strong Agreement","Strong Agreement","Slight Agreement","Moderate Agreement","Very Strong Agreement","Strong Agreement","Very Strong Agreement","Strong Agreement","Very Strong Agreement","Very Strong Agreement","Strong Agreement","Very Strong Agreement","Strong Agreement","Very Strong Agreement","Strong Agreement","Moderate Agreement","Moderate Agreement","Very Strong Agreement"
"65","A2AXY7I6TCRVP5:32Z9ZLUT1MQ7SRJ2ZS9E4ZVH1HTHO9","1",3,5,1,"5","<p style=""font-size:100px""><b>P</b></p><p style=""position: absolute; top: 30px; right: 30px; text-align:right; font-size:50px"""">N = 1</p>","P",0,69,846.899999856949,0,"agree",19,18,17,20,18,"35","male","everything is clear","Very Strong Agreement","Strong Agreement","Slight Agreement","Moderate Agreement","Very Strong Agreement","Strong Agreement","Very Strong Agreement","Strong Agreement","Very Strong Agreement","Very Strong Agreement","Strong Agreement","Very Strong Agreement","Strong Agreement","Very Strong Agreement","Strong Agreement","Moderate Agreement","Moderate Agreement","Very Strong Agreement"
"66","A2AXY7I6TCRVP5:32Z9ZLUT1MQ7SRJ2ZS9E4ZVH1HTHO9","1",3,6,1,"5","<p style=""font-size:100px""><b>P</b></p><p style=""position: absolute; top: 30px; right: 30px; text-align:right; font-size:50px"""">N = 1</p>","P",0,69,590.5,0,"agree",19,18,17,20,18,"35","male","everything is clear","Very Strong Agreement","Strong Agreement","Slight Agreement","Moderate Agreement","Very Strong Agreement","Strong Agreement","Very Strong Agreement","Strong Agreement","Very Strong Agreement","Very Strong Agreement","Strong Agreement","Very Strong Agreement","Strong Agreement","Very Strong Agreement","Strong Agreement","Moderate Agreement","Moderate Agreement","Very Strong Agreement"
"67","A2AXY7I6TCRVP5:32Z9ZLUT1MQ7SRJ2ZS9E4ZVH1HTHO9","1",3,7,1,"5","<p style=""font-size:100px""><b>t</b></p><p style=""position: absolute; top: 30px; right: 30px; text-align:right; font-size:50px"""">N = 1</p>","t",0,73,629.299999952316,1,"agree",19,18,17,20,18,"35","male","everything is clear","Very Strong Agreement","Strong Agreement","Slight Agreement","Moderate Agreement","Very Strong Agreement","Strong Agreement","Very Strong Agreement","Strong Agreement","Very Strong Agreement","Very Strong Agreement","Strong Agreement","Very Strong Agreement","Strong Agreement","Very Strong Agreement","Strong Agreement","Moderate Agreement","Moderate Agreement","Very Strong Agreement"
"68","A2AXY7I6TCRVP5:32Z9ZLUT1MQ7SRJ2ZS9E4ZVH1HTHO9","1",3,8,1,"5","<p style=""font-size:100px""><b>g</b></p><p style=""position: absolute; top: 30px; right: 30px; text-align:right; font-size:50px"""">N = 1</p>","g",0,69,836.600000143051,0,"agree",19,18,17,20,18,"35","male","everything is clear","Very Strong Agreement","Strong Agreement","Slight Agreement","Moderate Agreement","Very Strong Agreement","Strong Agreement","Very Strong Agreement","Strong Agreement","Very Strong Agreement","Very Strong Agreement","Strong Agreement","Very Strong Agreement","Strong Agreement","Very Strong Agreement","Strong Agreement","Moderate Agreement","Moderate Agreement","Very Strong Agreement"
"69","A2AXY7I6TCRVP5:32Z9ZLUT1MQ7SRJ2ZS9E4ZVH1HTHO9","1",3,9,1,"5","<p style=""font-size:100px""><b>T</b></p><p style=""position: absolute; top: 30px; right: 30px; text-align:right; font-size:50px"""">N = 1</p>","T",0,69,574.600000143051,0,"agree",19,18,17,20,18,"35","male","everything is clear","Very Strong Agreement","Strong Agreement","Slight Agreement","Moderate Agreement","Very Strong Agreement","Strong Agreement","Very Strong Agreement","Strong Agreement","Very Strong Agreement","Very Strong Agreement","Strong Agreement","Very Strong Agreement","Strong Agreement","Very Strong Agreement","Strong Agreement","Moderate Agreement","Moderate Agreement","Very Strong Agreement"
"70","A2AXY7I6TCRVP5:32Z9ZLUT1MQ7SRJ2ZS9E4ZVH1HTHO9","1",3,10,1,"5","<p style=""font-size:100px""><b>T</b></p><p style=""position: absolute; top: 30px; right: 30px; text-align:right; font-size:50px"""">N = 1</p>","T",0,69,492.299999952316,0,"agree",19,18,17,20,18,"35","male","everything is clear","Very Strong Agreement","Strong Agreement","Slight Agreement","Moderate Agreement","Very Strong Agreement","Strong Agreement","Very Strong Agreement","Strong Agreement","Very Strong Agreement","Very Strong Agreement","Strong Agreement","Very Strong Agreement","Strong Agreement","Very Strong Agreement","Strong Agreement","Moderate Agreement","Moderate Agreement","Very Strong Agreement"
"71","A2AXY7I6TCRVP5:32Z9ZLUT1MQ7SRJ2ZS9E4ZVH1HTHO9","1",3,11,1,"5","<p style=""font-size:100px""><b>V</b></p><p style=""position: absolute; top: 30px; right: 30px; text-align:right; font-size:50px"""">N = 1</p>","V",0,73,827.099999904633,1,"agree",19,18,17,20,18,"35","male","everything is clear","Very Strong Agreement","Strong Agreement","Slight Agreement","Moderate Agreement","Very Strong Agreement","Strong Agreement","Very Strong Agreement","Strong Agreement","Very Strong Agreement","Very Strong Agreement","Strong Agreement","Very Strong Agreement","Strong Agreement","Very Strong Agreement","Strong Agreement","Moderate Agreement","Moderate Agreement","Very Strong Agreement"
"72","A2AXY7I6TCRVP5:32Z9ZLUT1MQ7SRJ2ZS9E4ZVH1HTHO9","1",3,12,1,"5","<p style=""font-size:100px""><b>d</b></p><p style=""position: absolute; top: 30px; right: 30px; text-align:right; font-size:50px"""">N = 1</p>","d",0,69,610.399999856949,0,"agree",19,18,17,20,18,"35","male","everything is clear","Very Strong Agreement","Strong Agreement","Slight Agreement","Moderate Agreement","Very Strong Agreement","Strong Agreement","Very Strong Agreement","Strong Agreement","Very Strong Agreement","Very Strong Agreement","Strong Agreement","Very Strong Agreement","Strong Agreement","Very Strong Agreement","Strong Agreement","Moderate Agreement","Moderate Agreement","Very Strong Agreement"
"73","A2AXY7I6TCRVP5:32Z9ZLUT1MQ7SRJ2ZS9E4ZVH1HTHO9","1",4,1,2,"50","<p style=""font-size:100px""><b>V</b></p><p style=""position: absolute; top: 30px; right: 30px; text-align:right; font-size:50px"""">N = 2</p>","V",0,69,663.599999904633,0,"agree",17,20,19,20,19,"35","male","everything is clear","Very Strong Agreement","Strong Agreement","Slight Agreement","Moderate Agreement","Very Strong Agreement","Strong Agreement","Very Strong Agreement","Strong Agreement","Very Strong Agreement","Very Strong Agreement","Strong Agreement","Very Strong Agreement","Strong Agreement","Very Strong Agreement","Strong Agreement","Moderate Agreement","Moderate Agreement","Very Strong Agreement"
"74","A2AXY7I6TCRVP5:32Z9ZLUT1MQ7SRJ2ZS9E4ZVH1HTHO9","1",4,2,2,"50","<p style=""font-size:100px""><b>b</b></p><p style=""position: absolute; top: 30px; right: 30px; text-align:right; font-size:50px"""">N = 2</p>","b",0,69,151.5,0,"agree",17,20,19,20,19,"35","male","everything is clear","Very Strong Agreement","Strong Agreement","Slight Agreement","Moderate Agreement","Very Strong Agreement","Strong Agreement","Very Strong Agreement","Strong Agreement","Very Strong Agreement","Very Strong Agreement","Strong Agreement","Very Strong Agreement","Strong Agreement","Very Strong Agreement","Strong Agreement","Moderate Agreement","Moderate Agreement","Very Strong Agreement"
"75","A2AXY7I6TCRVP5:32Z9ZLUT1MQ7SRJ2ZS9E4ZVH1HTHO9","1",4,3,2,"50","<p style=""font-size:100px""><b>V</b></p><p style=""position: absolute; top: 30px; right: 30px; text-align:right; font-size:50px"""">N = 2</p>","V",0,69,365.400000095367,0,"agree",17,20,19,20,19,"35","male","everything is clear","Very Strong Agreement","Strong Agreement","Slight Agreement","Moderate Agreement","Very Strong Agreement","Strong Agreement","Very Strong Agreement","Strong Agreement","Very Strong Agreement","Very Strong Agreement","Strong Agreement","Very Strong Agreement","Strong Agreement","Very Strong Agreement","Strong Agreement","Moderate Agreement","Moderate Agreement","Very Strong Agreement"
"76","A2AXY7I6TCRVP5:32Z9ZLUT1MQ7SRJ2ZS9E4ZVH1HTHO9","1",4,4,2,"50","<p style=""font-size:100px""><b>b</b></p><p style=""position: absolute; top: 30px; right: 30px; text-align:right; font-size:50px"""">N = 2</p>","b",0,69,504.200000047684,0,"agree",17,20,19,20,19,"35","male","everything is clear","Very Strong Agreement","Strong Agreement","Slight Agreement","Moderate Agreement","Very Strong Agreement","Strong Agreement","Very Strong Agreement","Strong Agreement","Very Strong Agreement","Very Strong Agreement","Strong Agreement","Very Strong Agreement","Strong Agreement","Very Strong Agreement","Strong Agreement","Moderate Agreement","Moderate Agreement","Very Strong Agreement"
"77","A2AXY7I6TCRVP5:32Z9ZLUT1MQ7SRJ2ZS9E4ZVH1HTHO9","1",4,5,2,"50","<p style=""font-size:100px""><b>g</b></p><p style=""position: absolute; top: 30px; right: 30px; text-align:right; font-size:50px"""">N = 2</p>","g",0,69,437.699999809265,0,"agree",17,20,19,20,19,"35","male","everything is clear","Very Strong Agreement","Strong Agreement","Slight Agreement","Moderate Agreement","Very Strong Agreement","Strong Agreement","Very Strong Agreement","Strong Agreement","Very Strong Agreement","Very Strong Agreement","Strong Agreement","Very Strong Agreement","Strong Agreement","Very Strong Agreement","Strong Agreement","Moderate Agreement","Moderate Agreement","Very Strong Agreement"
"78","A2AXY7I6TCRVP5:32Z9ZLUT1MQ7SRJ2ZS9E4ZVH1HTHO9","1",4,6,2,"50","<p style=""font-size:100px""><b>b</b></p><p style=""position: absolute; top: 30px; right: 30px; text-align:right; font-size:50px"""">N = 2</p>","b",0,69,439,0,"agree",17,20,19,20,19,"35","male","everything is clear","Very Strong Agreement","Strong Agreement","Slight Agreement","Moderate Agreement","Very Strong Agreement","Strong Agreement","Very Strong Agreement","Strong Agreement","Very Strong Agreement","Very Strong Agreement","Strong Agreement","Very Strong Agreement","Strong Agreement","Very Strong Agreement","Strong Agreement","Moderate Agreement","Moderate Agreement","Very Strong Agreement"
"79","A2AXY7I6TCRVP5:32Z9ZLUT1MQ7SRJ2ZS9E4ZVH1HTHO9","1",4,7,2,"50","<p style=""font-size:100px""><b>T</b></p><p style=""position: absolute; top: 30px; right: 30px; text-align:right; font-size:50px"""">N = 2</p>","T",0,73,327.5,1,"agree",17,20,19,20,19,"35","male","everything is clear","Very Strong Agreement","Strong Agreement","Slight Agreement","Moderate Agreement","Very Strong Agreement","Strong Agreement","Very Strong Agreement","Strong Agreement","Very Strong Agreement","Very Strong Agreement","Strong Agreement","Very Strong Agreement","Strong Agreement","Very Strong Agreement","Strong Agreement","Moderate Agreement","Moderate Agreement","Very Strong Agreement"
"80","A2AXY7I6TCRVP5:32Z9ZLUT1MQ7SRJ2ZS9E4ZVH1HTHO9","1",4,8,2,"50","<p style=""font-size:100px""><b>V</b></p><p style=""position: absolute; top: 30px; right: 30px; text-align:right; font-size:50px"""">N = 2</p>","V",0,73,309.700000047684,1,"agree",17,20,19,20,19,"35","male","everything is clear","Very Strong Agreement","Strong Agreement","Slight Agreement","Moderate Agreement","Very Strong Agreement","Strong Agreement","Very Strong Agreement","Strong Agreement","Very Strong Agreement","Very Strong Agreement","Strong Agreement","Very Strong Agreement","Strong Agreement","Very Strong Agreement","Strong Agreement","Moderate Agreement","Moderate Agreement","Very Strong Agreement"
"81","A2AXY7I6TCRVP5:32Z9ZLUT1MQ7SRJ2ZS9E4ZVH1HTHO9","1",4,9,2,"50","<p style=""font-size:100px""><b>B</b></p><p style=""position: absolute; top: 30px; right: 30px; text-align:right; font-size:50px"""">N = 2</p>","B",0,73,110.200000047684,1,"agree",17,20,19,20,19,"35","male","everything is clear","Very Strong Agreement","Strong Agreement","Slight Agreement","Moderate Agreement","Very Strong Agreement","Strong Agreement","Very Strong Agreement","Strong Agreement","Very Strong Agreement","Very Strong Agreement","Strong Agreement","Very Strong Agreement","Strong Agreement","Very Strong Agreement","Strong Agreement","Moderate Agreement","Moderate Agreement","Very Strong Agreement"
"82","A2AXY7I6TCRVP5:32Z9ZLUT1MQ7SRJ2ZS9E4ZVH1HTHO9","1",4,10,2,"50","<p style=""font-size:100px""><b>D</b></p><p style=""position: absolute; top: 30px; right: 30px; text-align:right; font-size:50px"""">N = 2</p>","D",0,73,24,1,"agree",17,20,19,20,19,"35","male","everything is clear","Very Strong Agreement","Strong Agreement","Slight Agreement","Moderate Agreement","Very Strong Agreement","Strong Agreement","Very Strong Agreement","Strong Agreement","Very Strong Agreement","Very Strong Agreement","Strong Agreement","Very Strong Agreement","Strong Agreement","Very Strong Agreement","Strong Agreement","Moderate Agreement","Moderate Agreement","Very Strong Agreement"
"83","A2AXY7I6TCRVP5:32Z9ZLUT1MQ7SRJ2ZS9E4ZVH1HTHO9","1",4,11,2,"50","<p style=""font-size:100px""><b>V</b></p><p style=""position: absolute; top: 30px; right: 30px; text-align:right; font-size:50px"""">N = 2</p>","V",0,69,257.399999856949,0,"agree",17,20,19,20,19,"35","male","everything is clear","Very Strong Agreement","Strong Agreement","Slight Agreement","Moderate Agreement","Very Strong Agreement","Strong Agreement","Very Strong Agreement","Strong Agreement","Very Strong Agreement","Very Strong Agreement","Strong Agreement","Very Strong Agreement","Strong Agreement","Very Strong Agreement","Strong Agreement","Moderate Agreement","Moderate Agreement","Very Strong Agreement"
"84","A2AXY7I6TCRVP5:32Z9ZLUT1MQ7SRJ2ZS9E4ZVH1HTHO9","1",4,12,2,"50","<p style=""font-size:100px""><b>D</b></p><p style=""position: absolute; top: 30px; right: 30px; text-align:right; font-size:50px"""">N = 2</p>","D",0,69,175.400000095367,0,"agree",17,20,19,20,19,"35","male","everything is clear","Very Strong Agreement","Strong Agreement","Slight Agreement","Moderate Agreement","Very Strong Agreement","Strong Agreement","Very Strong Agreement","Strong Agreement","Very Strong Agreement","Very Strong Agreement","Strong Agreement","Very Strong Agreement","Strong Agreement","Very Strong Agreement","Strong Agreement","Moderate Agreement","Moderate Agreement","Very Strong Agreement"
"85","A2AXY7I6TCRVP5:32Z9ZLUT1MQ7SRJ2ZS9E4ZVH1HTHO9","1",5,1,1,"50","<p style=""font-size:100px""><b>P</b></p><p style=""position: absolute; top: 30px; right: 30px; text-align:right; font-size:50px"""">N = 1</p>","P",0,69,742.599999904633,0,"agree",15,18,15,15,15,"35","male","everything is clear","Very Strong Agreement","Strong Agreement","Slight Agreement","Moderate Agreement","Very Strong Agreement","Strong Agreement","Very Strong Agreement","Strong Agreement","Very Strong Agreement","Very Strong Agreement","Strong Agreement","Very Strong Agreement","Strong Agreement","Very Strong Agreement","Strong Agreement","Moderate Agreement","Moderate Agreement","Very Strong Agreement"
"86","A2AXY7I6TCRVP5:32Z9ZLUT1MQ7SRJ2ZS9E4ZVH1HTHO9","1",5,2,1,"50","<p style=""font-size:100px""><b>b</b></p><p style=""position: absolute; top: 30px; right: 30px; text-align:right; font-size:50px"""">N = 1</p>","b",0,69,915.700000047684,0,"agree",15,18,15,15,15,"35","male","everything is clear","Very Strong Agreement","Strong Agreement","Slight Agreement","Moderate Agreement","Very Strong Agreement","Strong Agreement","Very Strong Agreement","Strong Agreement","Very Strong Agreement","Very Strong Agreement","Strong Agreement","Very Strong Agreement","Strong Agreement","Very Strong Agreement","Strong Agreement","Moderate Agreement","Moderate Agreement","Very Strong Agreement"
"87","A2AXY7I6TCRVP5:32Z9ZLUT1MQ7SRJ2ZS9E4ZVH1HTHO9","1",5,3,1,"50","<p style=""font-size:100px""><b>b</b></p><p style=""position: absolute; top: 30px; right: 30px; text-align:right; font-size:50px"""">N = 1</p>","b",0,69,748.400000095367,0,"agree",15,18,15,15,15,"35","male","everything is clear","Very Strong Agreement","Strong Agreement","Slight Agreement","Moderate Agreement","Very Strong Agreement","Strong Agreement","Very Strong Agreement","Strong Agreement","Very Strong Agreement","Very Strong Agreement","Strong Agreement","Very Strong Agreement","Strong Agreement","Very Strong Agreement","Strong Agreement","Moderate Agreement","Moderate Agreement","Very Strong Agreement"
"88","A2AXY7I6TCRVP5:32Z9ZLUT1MQ7SRJ2ZS9E4ZVH1HTHO9","1",5,4,1,"50","<p style=""font-size:100px""><b>b</b></p><p style=""position: absolute; top: 30px; right: 30px; text-align:right; font-size:50px"""">N = 1</p>","b",0,69,659.699999809265,0,"agree",15,18,15,15,15,"35","male","everything is clear","Very Strong Agreement","Strong Agreement","Slight Agreement","Moderate Agreement","Very Strong Agreement","Strong Agreement","Very Strong Agreement","Strong Agreement","Very Strong Agreement","Very Strong Agreement","Strong Agreement","Very Strong Agreement","Strong Agreement","Very Strong Agreement","Strong Agreement","Moderate Agreement","Moderate Agreement","Very Strong Agreement"
"89","A2AXY7I6TCRVP5:32Z9ZLUT1MQ7SRJ2ZS9E4ZVH1HTHO9","1",5,5,1,"50","<p style=""font-size:100px""><b>V</b></p><p style=""position: absolute; top: 30px; right: 30px; text-align:right; font-size:50px"""">N = 1</p>","V",0,73,410.200000047684,1,"agree",15,18,15,15,15,"35","male","everything is clear","Very Strong Agreement","Strong Agreement","Slight Agreement","Moderate Agreement","Very Strong Agreement","Strong Agreement","Very Strong Agreement","Strong Agreement","Very Strong Agreement","Very Strong Agreement","Strong Agreement","Very Strong Agreement","Strong Agreement","Very Strong Agreement","Strong Agreement","Moderate Agreement","Moderate Agreement","Very Strong Agreement"
"90","A2AXY7I6TCRVP5:32Z9ZLUT1MQ7SRJ2ZS9E4ZVH1HTHO9","1",5,6,1,"50","<p style=""font-size:100px""><b>D</b></p><p style=""position: absolute; top: 30px; right: 30px; text-align:right; font-size:50px"""">N = 1</p>","D",0,73,634.399999856949,1,"agree",15,18,15,15,15,"35","male","everything is clear","Very Strong Agreement","Strong Agreement","Slight Agreement","Moderate Agreement","Very Strong Agreement","Strong Agreement","Very Strong Agreement","Strong Agreement","Very Strong Agreement","Very Strong Agreement","Strong Agreement","Very Strong Agreement","Strong Agreement","Very Strong Agreement","Strong Agreement","Moderate Agreement","Moderate Agreement","Very Strong Agreement"
"91","A2AXY7I6TCRVP5:32Z9ZLUT1MQ7SRJ2ZS9E4ZVH1HTHO9","1",5,7,1,"50","<p style=""font-size:100px""><b>v</b></p><p style=""position: absolute; top: 30px; right: 30px; text-align:right; font-size:50px"""">N = 1</p>","v",0,73,514.599999904633,1,"agree",15,18,15,15,15,"35","male","everything is clear","Very Strong Agreement","Strong Agreement","Slight Agreement","Moderate Agreement","Very Strong Agreement","Strong Agreement","Very Strong Agreement","Strong Agreement","Very Strong Agreement","Very Strong Agreement","Strong Agreement","Very Strong Agreement","Strong Agreement","Very Strong Agreement","Strong Agreement","Moderate Agreement","Moderate Agreement","Very Strong Agreement"
"92","A2AXY7I6TCRVP5:32Z9ZLUT1MQ7SRJ2ZS9E4ZVH1HTHO9","1",5,8,1,"50","<p style=""font-size:100px""><b>v</b></p><p style=""position: absolute; top: 30px; right: 30px; text-align:right; font-size:50px"""">N = 1</p>","v",0,69,672.899999856949,0,"agree",15,18,15,15,15,"35","male","everything is clear","Very Strong Agreement","Strong Agreement","Slight Agreement","Moderate Agreement","Very Strong Agreement","Strong Agreement","Very Strong Agreement","Strong Agreement","Very Strong Agreement","Very Strong Agreement","Strong Agreement","Very Strong Agreement","Strong Agreement","Very Strong Agreement","Strong Agreement","Moderate Agreement","Moderate Agreement","Very Strong Agreement"
"93","A2AXY7I6TCRVP5:32Z9ZLUT1MQ7SRJ2ZS9E4ZVH1HTHO9","1",5,9,1,"50","<p style=""font-size:100px""><b>G</b></p><p style=""position: absolute; top: 30px; right: 30px; text-align:right; font-size:50px"""">N = 1</p>","G",0,73,945,1,"agree",15,18,15,15,15,"35","male","everything is clear","Very Strong Agreement","Strong Agreement","Slight Agreement","Moderate Agreement","Very Strong Agreement","Strong Agreement","Very Strong Agreement","Strong Agreement","Very Strong Agreement","Very Strong Agreement","Strong Agreement","Very Strong Agreement","Strong Agreement","Very Strong Agreement","Strong Agreement","Moderate Agreement","Moderate Agreement","Very Strong Agreement"
"94","A2AXY7I6TCRVP5:32Z9ZLUT1MQ7SRJ2ZS9E4ZVH1HTHO9","1",5,10,1,"50","<p style=""font-size:100px""><b>T</b></p><p style=""position: absolute; top: 30px; right: 30px; text-align:right; font-size:50px"""">N = 1</p>","T",0,73,808.700000047684,1,"agree",15,18,15,15,15,"35","male","everything is clear","Very Strong Agreement","Strong Agreement","Slight Agreement","Moderate Agreement","Very Strong Agreement","Strong Agreement","Very Strong Agreement","Strong Agreement","Very Strong Agreement","Very Strong Agreement","Strong Agreement","Very Strong Agreement","Strong Agreement","Very Strong Agreement","Strong Agreement","Moderate Agreement","Moderate Agreement","Very Strong Agreement"
"95","A2AXY7I6TCRVP5:32Z9ZLUT1MQ7SRJ2ZS9E4ZVH1HTHO9","1",5,11,1,"50","<p style=""font-size:100px""><b>d</b></p><p style=""position: absolute; top: 30px; right: 30px; text-align:right; font-size:50px"""">N = 1</p>","d",0,69,687.700000047684,0,"agree",15,18,15,15,15,"35","male","everything is clear","Very Strong Agreement","Strong Agreement","Slight Agreement","Moderate Agreement","Very Strong Agreement","Strong Agreement","Very Strong Agreement","Strong Agreement","Very Strong Agreement","Very Strong Agreement","Strong Agreement","Very Strong Agreement","Strong Agreement","Very Strong Agreement","Strong Agreement","Moderate Agreement","Moderate Agreement","Very Strong Agreement"
"96","A2AXY7I6TCRVP5:32Z9ZLUT1MQ7SRJ2ZS9E4ZVH1HTHO9","1",5,12,1,"50","<p style=""font-size:100px""><b>d</b></p><p style=""position: absolute; top: 30px; right: 30px; text-align:right; font-size:50px"""">N = 1</p>","d",0,69,537.599999904633,0,"agree",15,18,15,15,15,"35","male","everything is clear","Very Strong Agreement","Strong Agreement","Slight Agreement","Moderate Agreement","Very Strong Agreement","Strong Agreement","Very Strong Agreement","Strong Agreement","Very Strong Agreement","Very Strong Agreement","Strong Agreement","Very Strong Agreement","Strong Agreement","Very Strong Agreement","Strong Agreement","Moderate Agreement","Moderate Agreement","Very Strong Agreement"
"97","A2AXY7I6TCRVP5:32Z9ZLUT1MQ7SRJ2ZS9E4ZVH1HTHO9","1",6,1,3,"50","<p style=""font-size:100px""><b>d</b></p><p style=""position: absolute; top: 30px; right: 30px; text-align:right; font-size:50px"""">N = 3</p>","d",0,NA,NA,0,"agree",17,17,18,17,19,"35","male","everything is clear","Very Strong Agreement","Strong Agreement","Slight Agreement","Moderate Agreement","Very Strong Agreement","Strong Agreement","Very Strong Agreement","Strong Agreement","Very Strong Agreement","Very Strong Agreement","Strong Agreement","Very Strong Agreement","Strong Agreement","Very Strong Agreement","Strong Agreement","Moderate Agreement","Moderate Agreement","Very Strong Agreement"
"98","A2AXY7I6TCRVP5:32Z9ZLUT1MQ7SRJ2ZS9E4ZVH1HTHO9","1",6,2,3,"50","<p style=""font-size:100px""><b>p</b></p><p style=""position: absolute; top: 30px; right: 30px; text-align:right; font-size:50px"""">N = 3</p>","p",0,69,829.799999952316,0,"agree",17,17,18,17,19,"35","male","everything is clear","Very Strong Agreement","Strong Agreement","Slight Agreement","Moderate Agreement","Very Strong Agreement","Strong Agreement","Very Strong Agreement","Strong Agreement","Very Strong Agreement","Very Strong Agreement","Strong Agreement","Very Strong Agreement","Strong Agreement","Very Strong Agreement","Strong Agreement","Moderate Agreement","Moderate Agreement","Very Strong Agreement"
"99","A2AXY7I6TCRVP5:32Z9ZLUT1MQ7SRJ2ZS9E4ZVH1HTHO9","1",6,3,3,"50","<p style=""font-size:100px""><b>G</b></p><p style=""position: absolute; top: 30px; right: 30px; text-align:right; font-size:50px"""">N = 3</p>","G",0,73,748.699999809265,1,"agree",17,17,18,17,19,"35","male","everything is clear","Very Strong Agreement","Strong Agreement","Slight Agreement","Moderate Agreement","Very Strong Agreement","Strong Agreement","Very Strong Agreement","Strong Agreement","Very Strong Agreement","Very Strong Agreement","Strong Agreement","Very Strong Agreement","Strong Agreement","Very Strong Agreement","Strong Agreement","Moderate Agreement","Moderate Agreement","Very Strong Agreement"
"100","A2AXY7I6TCRVP5:32Z9ZLUT1MQ7SRJ2ZS9E4ZVH1HTHO9","1",6,4,3,"50","<p style=""font-size:100px""><b>d</b></p><p style=""position: absolute; top: 30px; right: 30px; text-align:right; font-size:50px"""">N = 3</p>","d",0,69,573.899999856949,0,"agree",17,17,18,17,19,"35","male","everything is clear","Very Strong Agreement","Strong Agreement","Slight Agreement","Moderate Agreement","Very Strong Agreement","Strong Agreement","Very Strong Agreement","Strong Agreement","Very Strong Agreement","Very Strong Agreement","Strong Agreement","Very Strong Agreement","Strong Agreement","Very Strong Agreement","Strong Agreement","Moderate Agreement","Moderate Agreement","Very Strong Agreement"
"101","A2AXY7I6TCRVP5:32Z9ZLUT1MQ7SRJ2ZS9E4ZVH1HTHO9","1",6,5,3,"50","<p style=""font-size:100px""><b>p</b></p><p style=""position: absolute; top: 30px; right: 30px; text-align:right; font-size:50px"""">N = 3</p>","p",0,69,727.600000143051,0,"agree",17,17,18,17,19,"35","male","everything is clear","Very Strong Agreement","Strong Agreement","Slight Agreement","Moderate Agreement","Very Strong Agreement","Strong Agreement","Very Strong Agreement","Strong Agreement","Very Strong Agreement","Very Strong Agreement","Strong Agreement","Very Strong Agreement","Strong Agreement","Very Strong Agreement","Strong Agreement","Moderate Agreement","Moderate Agreement","Very Strong Agreement"
"102","A2AXY7I6TCRVP5:32Z9ZLUT1MQ7SRJ2ZS9E4ZVH1HTHO9","1",6,6,3,"50","<p style=""font-size:100px""><b>B</b></p><p style=""position: absolute; top: 30px; right: 30px; text-align:right; font-size:50px"""">N = 3</p>","B",0,73,654.799999952316,1,"agree",17,17,18,17,19,"35","male","everything is clear","Very Strong Agreement","Strong Agreement","Slight Agreement","Moderate Agreement","Very Strong Agreement","Strong Agreement","Very Strong Agreement","Strong Agreement","Very Strong Agreement","Very Strong Agreement","Strong Agreement","Very Strong Agreement","Strong Agreement","Very Strong Agreement","Strong Agreement","Moderate Agreement","Moderate Agreement","Very Strong Agreement"
"103","A2AXY7I6TCRVP5:32Z9ZLUT1MQ7SRJ2ZS9E4ZVH1HTHO9","1",6,7,3,"50","<p style=""font-size:100px""><b>V</b></p><p style=""position: absolute; top: 30px; right: 30px; text-align:right; font-size:50px"""">N = 3</p>","V",0,73,549.799999952316,1,"agree",17,17,18,17,19,"35","male","everything is clear","Very Strong Agreement","Strong Agreement","Slight Agreement","Moderate Agreement","Very Strong Agreement","Strong Agreement","Very Strong Agreement","Strong Agreement","Very Strong Agreement","Very Strong Agreement","Strong Agreement","Very Strong Agreement","Strong Agreement","Very Strong Agreement","Strong Agreement","Moderate Agreement","Moderate Agreement","Very Strong Agreement"
"104","A2AXY7I6TCRVP5:32Z9ZLUT1MQ7SRJ2ZS9E4ZVH1HTHO9","1",6,8,3,"50","<p style=""font-size:100px""><b>p</b></p><p style=""position: absolute; top: 30px; right: 30px; text-align:right; font-size:50px"""">N = 3</p>","p",0,73,493,1,"agree",17,17,18,17,19,"35","male","everything is clear","Very Strong Agreement","Strong Agreement","Slight Agreement","Moderate Agreement","Very Strong Agreement","Strong Agreement","Very Strong Agreement","Strong Agreement","Very Strong Agreement","Very Strong Agreement","Strong Agreement","Very Strong Agreement","Strong Agreement","Very Strong Agreement","Strong Agreement","Moderate Agreement","Moderate Agreement","Very Strong Agreement"
"105","A2AXY7I6TCRVP5:32Z9ZLUT1MQ7SRJ2ZS9E4ZVH1HTHO9","1",6,9,3,"50","<p style=""font-size:100px""><b>D</b></p><p style=""position: absolute; top: 30px; right: 30px; text-align:right; font-size:50px"""">N = 3</p>","D",0,73,757.899999856949,1,"agree",17,17,18,17,19,"35","male","everything is clear","Very Strong Agreement","Strong Agreement","Slight Agreement","Moderate Agreement","Very Strong Agreement","Strong Agreement","Very Strong Agreement","Strong Agreement","Very Strong Agreement","Very Strong Agreement","Strong Agreement","Very Strong Agreement","Strong Agreement","Very Strong Agreement","Strong Agreement","Moderate Agreement","Moderate Agreement","Very Strong Agreement"
"106","A2AXY7I6TCRVP5:32Z9ZLUT1MQ7SRJ2ZS9E4ZVH1HTHO9","1",6,10,3,"50","<p style=""font-size:100px""><b>V</b></p><p style=""position: absolute; top: 30px; right: 30px; text-align:right; font-size:50px"""">N = 3</p>","V",0,69,796.700000047684,0,"agree",17,17,18,17,19,"35","male","everything is clear","Very Strong Agreement","Strong Agreement","Slight Agreement","Moderate Agreement","Very Strong Agreement","Strong Agreement","Very Strong Agreement","Strong Agreement","Very Strong Agreement","Very Strong Agreement","Strong Agreement","Very Strong Agreement","Strong Agreement","Very Strong Agreement","Strong Agreement","Moderate Agreement","Moderate Agreement","Very Strong Agreement"
"107","A2AXY7I6TCRVP5:32Z9ZLUT1MQ7SRJ2ZS9E4ZVH1HTHO9","1",6,11,3,"50","<p style=""font-size:100px""><b>V</b></p><p style=""position: absolute; top: 30px; right: 30px; text-align:right; font-size:50px"""">N = 3</p>","V",0,73,811.199999809265,1,"agree",17,17,18,17,19,"35","male","everything is clear","Very Strong Agreement","Strong Agreement","Slight Agreement","Moderate Agreement","Very Strong Agreement","Strong Agreement","Very Strong Agreement","Strong Agreement","Very Strong Agreement","Very Strong Agreement","Strong Agreement","Very Strong Agreement","Strong Agreement","Very Strong Agreement","Strong Agreement","Moderate Agreement","Moderate Agreement","Very Strong Agreement"
"108","A2AXY7I6TCRVP5:32Z9ZLUT1MQ7SRJ2ZS9E4ZVH1HTHO9","1",6,12,3,"50","<p style=""font-size:100px""><b>v</b></p><p style=""position: absolute; top: 30px; right: 30px; text-align:right; font-size:50px"""">N = 3</p>","v",0,69,891.899999856949,0,"agree",17,17,18,17,19,"35","male","everything is clear","Very Strong Agreement","Strong Agreement","Slight Agreement","Moderate Agreement","Very Strong Agreement","Strong Agreement","Very Strong Agreement","Strong Agreement","Very Strong Agreement","Very Strong Agreement","Strong Agreement","Very Strong Agreement","Strong Agreement","Very Strong Agreement","Strong Agreement","Moderate Agreement","Moderate Agreement","Very Strong Agreement"
"109","A2AXY7I6TCRVP5:32Z9ZLUT1MQ7SRJ2ZS9E4ZVH1HTHO9","2",7,1,3,"5","<p style=""font-size:100px""><b>T</b></p><p style=""position: absolute; top: 30px; right: 30px; text-align:right; font-size:50px"""">N = 3</p>","T",0,NA,NA,0,"agree",17,19,16,18,20,"35","male","everything is clear","Very Strong Agreement","Strong Agreement","Slight Agreement","Moderate Agreement","Very Strong Agreement","Strong Agreement","Very Strong Agreement","Strong Agreement","Very Strong Agreement","Very Strong Agreement","Strong Agreement","Very Strong Agreement","Strong Agreement","Very Strong Agreement","Strong Agreement","Moderate Agreement","Moderate Agreement","Very Strong Agreement"
"110","A2AXY7I6TCRVP5:32Z9ZLUT1MQ7SRJ2ZS9E4ZVH1HTHO9","2",7,2,3,"5","<p style=""font-size:100px""><b>b</b></p><p style=""position: absolute; top: 30px; right: 30px; text-align:right; font-size:50px"""">N = 3</p>","b",0,69,917.200000047684,0,"agree",17,19,16,18,20,"35","male","everything is clear","Very Strong Agreement","Strong Agreement","Slight Agreement","Moderate Agreement","Very Strong Agreement","Strong Agreement","Very Strong Agreement","Strong Agreement","Very Strong Agreement","Very Strong Agreement","Strong Agreement","Very Strong Agreement","Strong Agreement","Very Strong Agreement","Strong Agreement","Moderate Agreement","Moderate Agreement","Very Strong Agreement"
"111","A2AXY7I6TCRVP5:32Z9ZLUT1MQ7SRJ2ZS9E4ZVH1HTHO9","2",7,3,3,"5","<p style=""font-size:100px""><b>D</b></p><p style=""position: absolute; top: 30px; right: 30px; text-align:right; font-size:50px"""">N = 3</p>","D",0,69,876.900000095367,0,"agree",17,19,16,18,20,"35","male","everything is clear","Very Strong Agreement","Strong Agreement","Slight Agreement","Moderate Agreement","Very Strong Agreement","Strong Agreement","Very Strong Agreement","Strong Agreement","Very Strong Agreement","Very Strong Agreement","Strong Agreement","Very Strong Agreement","Strong Agreement","Very Strong Agreement","Strong Agreement","Moderate Agreement","Moderate Agreement","Very Strong Agreement"
"112","A2AXY7I6TCRVP5:32Z9ZLUT1MQ7SRJ2ZS9E4ZVH1HTHO9","2",7,4,3,"5","<p style=""font-size:100px""><b>T</b></p><p style=""position: absolute; top: 30px; right: 30px; text-align:right; font-size:50px"""">N = 3</p>","T",0,69,667.899999856949,0,"agree",17,19,16,18,20,"35","male","everything is clear","Very Strong Agreement","Strong Agreement","Slight Agreement","Moderate Agreement","Very Strong Agreement","Strong Agreement","Very Strong Agreement","Strong Agreement","Very Strong Agreement","Very Strong Agreement","Strong Agreement","Very Strong Agreement","Strong Agreement","Very Strong Agreement","Strong Agreement","Moderate Agreement","Moderate Agreement","Very Strong Agreement"
"113","A2AXY7I6TCRVP5:32Z9ZLUT1MQ7SRJ2ZS9E4ZVH1HTHO9","2",7,5,3,"5","<p style=""font-size:100px""><b>p</b></p><p style=""position: absolute; top: 30px; right: 30px; text-align:right; font-size:50px"""">N = 3</p>","p",0,73,611.099999904633,1,"agree",17,19,16,18,20,"35","male","everything is clear","Very Strong Agreement","Strong Agreement","Slight Agreement","Moderate Agreement","Very Strong Agreement","Strong Agreement","Very Strong Agreement","Strong Agreement","Very Strong Agreement","Very Strong Agreement","Strong Agreement","Very Strong Agreement","Strong Agreement","Very Strong Agreement","Strong Agreement","Moderate Agreement","Moderate Agreement","Very Strong Agreement"
"114","A2AXY7I6TCRVP5:32Z9ZLUT1MQ7SRJ2ZS9E4ZVH1HTHO9","2",7,6,3,"5","<p style=""font-size:100px""><b>P</b></p><p style=""position: absolute; top: 30px; right: 30px; text-align:right; font-size:50px"""">N = 3</p>","P",0,69,755.899999856949,0,"agree",17,19,16,18,20,"35","male","everything is clear","Very Strong Agreement","Strong Agreement","Slight Agreement","Moderate Agreement","Very Strong Agreement","Strong Agreement","Very Strong Agreement","Strong Agreement","Very Strong Agreement","Very Strong Agreement","Strong Agreement","Very Strong Agreement","Strong Agreement","Very Strong Agreement","Strong Agreement","Moderate Agreement","Moderate Agreement","Very Strong Agreement"
"115","A2AXY7I6TCRVP5:32Z9ZLUT1MQ7SRJ2ZS9E4ZVH1HTHO9","2",7,7,3,"5","<p style=""font-size:100px""><b>G</b></p><p style=""position: absolute; top: 30px; right: 30px; text-align:right; font-size:50px"""">N = 3</p>","G",0,73,866.200000047684,1,"agree",17,19,16,18,20,"35","male","everything is clear","Very Strong Agreement","Strong Agreement","Slight Agreement","Moderate Agreement","Very Strong Agreement","Strong Agreement","Very Strong Agreement","Strong Agreement","Very Strong Agreement","Very Strong Agreement","Strong Agreement","Very Strong Agreement","Strong Agreement","Very Strong Agreement","Strong Agreement","Moderate Agreement","Moderate Agreement","Very Strong Agreement"
"116","A2AXY7I6TCRVP5:32Z9ZLUT1MQ7SRJ2ZS9E4ZVH1HTHO9","2",7,8,3,"5","<p style=""font-size:100px""><b>p</b></p><p style=""position: absolute; top: 30px; right: 30px; text-align:right; font-size:50px"""">N = 3</p>","p",0,69,843.700000047684,0,"agree",17,19,16,18,20,"35","male","everything is clear","Very Strong Agreement","Strong Agreement","Slight Agreement","Moderate Agreement","Very Strong Agreement","Strong Agreement","Very Strong Agreement","Strong Agreement","Very Strong Agreement","Very Strong Agreement","Strong Agreement","Very Strong Agreement","Strong Agreement","Very Strong Agreement","Strong Agreement","Moderate Agreement","Moderate Agreement","Very Strong Agreement"
"117","A2AXY7I6TCRVP5:32Z9ZLUT1MQ7SRJ2ZS9E4ZVH1HTHO9","2",7,9,3,"5","<p style=""font-size:100px""><b>b</b></p><p style=""position: absolute; top: 30px; right: 30px; text-align:right; font-size:50px"""">N = 3</p>","b",0,69,706.700000047684,0,"agree",17,19,16,18,20,"35","male","everything is clear","Very Strong Agreement","Strong Agreement","Slight Agreement","Moderate Agreement","Very Strong Agreement","Strong Agreement","Very Strong Agreement","Strong Agreement","Very Strong Agreement","Very Strong Agreement","Strong Agreement","Very Strong Agreement","Strong Agreement","Very Strong Agreement","Strong Agreement","Moderate Agreement","Moderate Agreement","Very Strong Agreement"
"118","A2AXY7I6TCRVP5:32Z9ZLUT1MQ7SRJ2ZS9E4ZVH1HTHO9","2",7,10,3,"5","<p style=""font-size:100px""><b>G</b></p><p style=""position: absolute; top: 30px; right: 30px; text-align:right; font-size:50px"""">N = 3</p>","G",0,69,762.099999904633,0,"agree",17,19,16,18,20,"35","male","everything is clear","Very Strong Agreement","Strong Agreement","Slight Agreement","Moderate Agreement","Very Strong Agreement","Strong Agreement","Very Strong Agreement","Strong Agreement","Very Strong Agreement","Very Strong Agreement","Strong Agreement","Very Strong Agreement","Strong Agreement","Very Strong Agreement","Strong Agreement","Moderate Agreement","Moderate Agreement","Very Strong Agreement"
"119","A2AXY7I6TCRVP5:32Z9ZLUT1MQ7SRJ2ZS9E4ZVH1HTHO9","2",7,11,3,"5","<p style=""font-size:100px""><b>p</b></p><p style=""position: absolute; top: 30px; right: 30px; text-align:right; font-size:50px"""">N = 3</p>","p",0,69,833.900000095367,0,"agree",17,19,16,18,20,"35","male","everything is clear","Very Strong Agreement","Strong Agreement","Slight Agreement","Moderate Agreement","Very Strong Agreement","Strong Agreement","Very Strong Agreement","Strong Agreement","Very Strong Agreement","Very Strong Agreement","Strong Agreement","Very Strong Agreement","Strong Agreement","Very Strong Agreement","Strong Agreement","Moderate Agreement","Moderate Agreement","Very Strong Agreement"
"120","A2AXY7I6TCRVP5:32Z9ZLUT1MQ7SRJ2ZS9E4ZVH1HTHO9","2",7,12,3,"5","<p style=""font-size:100px""><b>G</b></p><p style=""position: absolute; top: 30px; right: 30px; text-align:right; font-size:50px"""">N = 3</p>","G",0,69,699.099999904633,0,"agree",17,19,16,18,20,"35","male","everything is clear","Very Strong Agreement","Strong Agreement","Slight Agreement","Moderate Agreement","Very Strong Agreement","Strong Agreement","Very Strong Agreement","Strong Agreement","Very Strong Agreement","Very Strong Agreement","Strong Agreement","Very Strong Agreement","Strong Agreement","Very Strong Agreement","Strong Agreement","Moderate Agreement","Moderate Agreement","Very Strong Agreement"
"121","A2AXY7I6TCRVP5:32Z9ZLUT1MQ7SRJ2ZS9E4ZVH1HTHO9","2",8,1,3,"50","<p style=""font-size:100px""><b>v</b></p><p style=""position: absolute; top: 30px; right: 30px; text-align:right; font-size:50px"""">N = 3</p>","v",0,NA,NA,0,"agree",18,19,19,20,19,"35","male","everything is clear","Very Strong Agreement","Strong Agreement","Slight Agreement","Moderate Agreement","Very Strong Agreement","Strong Agreement","Very Strong Agreement","Strong Agreement","Very Strong Agreement","Very Strong Agreement","Strong Agreement","Very Strong Agreement","Strong Agreement","Very Strong Agreement","Strong Agreement","Moderate Agreement","Moderate Agreement","Very Strong Agreement"
"122","A2AXY7I6TCRVP5:32Z9ZLUT1MQ7SRJ2ZS9E4ZVH1HTHO9","2",8,2,3,"50","<p style=""font-size:100px""><b>p</b></p><p style=""position: absolute; top: 30px; right: 30px; text-align:right; font-size:50px"""">N = 3</p>","p",0,73,869.700000047684,1,"agree",18,19,19,20,19,"35","male","everything is clear","Very Strong Agreement","Strong Agreement","Slight Agreement","Moderate Agreement","Very Strong Agreement","Strong Agreement","Very Strong Agreement","Strong Agreement","Very Strong Agreement","Very Strong Agreement","Strong Agreement","Very Strong Agreement","Strong Agreement","Very Strong Agreement","Strong Agreement","Moderate Agreement","Moderate Agreement","Very Strong Agreement"
"123","A2AXY7I6TCRVP5:32Z9ZLUT1MQ7SRJ2ZS9E4ZVH1HTHO9","2",8,3,3,"50","<p style=""font-size:100px""><b>b</b></p><p style=""position: absolute; top: 30px; right: 30px; text-align:right; font-size:50px"""">N = 3</p>","b",0,69,717.900000095367,0,"agree",18,19,19,20,19,"35","male","everything is clear","Very Strong Agreement","Strong Agreement","Slight Agreement","Moderate Agreement","Very Strong Agreement","Strong Agreement","Very Strong Agreement","Strong Agreement","Very Strong Agreement","Very Strong Agreement","Strong Agreement","Very Strong Agreement","Strong Agreement","Very Strong Agreement","Strong Agreement","Moderate Agreement","Moderate Agreement","Very Strong Agreement"
"124","A2AXY7I6TCRVP5:32Z9ZLUT1MQ7SRJ2ZS9E4ZVH1HTHO9","2",8,4,3,"50","<p style=""font-size:100px""><b>v</b></p><p style=""position: absolute; top: 30px; right: 30px; text-align:right; font-size:50px"""">N = 3</p>","v",0,69,637.699999809265,0,"agree",18,19,19,20,19,"35","male","everything is clear","Very Strong Agreement","Strong Agreement","Slight Agreement","Moderate Agreement","Very Strong Agreement","Strong Agreement","Very Strong Agreement","Strong Agreement","Very Strong Agreement","Very Strong Agreement","Strong Agreement","Very Strong Agreement","Strong Agreement","Very Strong Agreement","Strong Agreement","Moderate Agreement","Moderate Agreement","Very Strong Agreement"
"125","A2AXY7I6TCRVP5:32Z9ZLUT1MQ7SRJ2ZS9E4ZVH1HTHO9","2",8,5,3,"50","<p style=""font-size:100px""><b>t</b></p><p style=""position: absolute; top: 30px; right: 30px; text-align:right; font-size:50px"""">N = 3</p>","t",0,69,549.599999904633,0,"agree",18,19,19,20,19,"35","male","everything is clear","Very Strong Agreement","Strong Agreement","Slight Agreement","Moderate Agreement","Very Strong Agreement","Strong Agreement","Very Strong Agreement","Strong Agreement","Very Strong Agreement","Very Strong Agreement","Strong Agreement","Very Strong Agreement","Strong Agreement","Very Strong Agreement","Strong Agreement","Moderate Agreement","Moderate Agreement","Very Strong Agreement"
"126","A2AXY7I6TCRVP5:32Z9ZLUT1MQ7SRJ2ZS9E4ZVH1HTHO9","2",8,6,3,"50","<p style=""font-size:100px""><b>b</b></p><p style=""position: absolute; top: 30px; right: 30px; text-align:right; font-size:50px"""">N = 3</p>","b",0,69,596.599999904633,0,"agree",18,19,19,20,19,"35","male","everything is clear","Very Strong Agreement","Strong Agreement","Slight Agreement","Moderate Agreement","Very Strong Agreement","Strong Agreement","Very Strong Agreement","Strong Agreement","Very Strong Agreement","Very Strong Agreement","Strong Agreement","Very Strong Agreement","Strong Agreement","Very Strong Agreement","Strong Agreement","Moderate Agreement","Moderate Agreement","Very Strong Agreement"
"127","A2AXY7I6TCRVP5:32Z9ZLUT1MQ7SRJ2ZS9E4ZVH1HTHO9","2",8,7,3,"50","<p style=""font-size:100px""><b>P</b></p><p style=""position: absolute; top: 30px; right: 30px; text-align:right; font-size:50px"""">N = 3</p>","P",0,69,616.199999809265,0,"agree",18,19,19,20,19,"35","male","everything is clear","Very Strong Agreement","Strong Agreement","Slight Agreement","Moderate Agreement","Very Strong Agreement","Strong Agreement","Very Strong Agreement","Strong Agreement","Very Strong Agreement","Very Strong Agreement","Strong Agreement","Very Strong Agreement","Strong Agreement","Very Strong Agreement","Strong Agreement","Moderate Agreement","Moderate Agreement","Very Strong Agreement"
"128","A2AXY7I6TCRVP5:32Z9ZLUT1MQ7SRJ2ZS9E4ZVH1HTHO9","2",8,8,3,"50","<p style=""font-size:100px""><b>P</b></p><p style=""position: absolute; top: 30px; right: 30px; text-align:right; font-size:50px"""">N = 3</p>","P",0,69,464.700000047684,0,"agree",18,19,19,20,19,"35","male","everything is clear","Very Strong Agreement","Strong Agreement","Slight Agreement","Moderate Agreement","Very Strong Agreement","Strong Agreement","Very Strong Agreement","Strong Agreement","Very Strong Agreement","Very Strong Agreement","Strong Agreement","Very Strong Agreement","Strong Agreement","Very Strong Agreement","Strong Agreement","Moderate Agreement","Moderate Agreement","Very Strong Agreement"
"129","A2AXY7I6TCRVP5:32Z9ZLUT1MQ7SRJ2ZS9E4ZVH1HTHO9","2",8,9,3,"50","<p style=""font-size:100px""><b>b</b></p><p style=""position: absolute; top: 30px; right: 30px; text-align:right; font-size:50px"""">N = 3</p>","b",0,69,752.099999904633,0,"agree",18,19,19,20,19,"35","male","everything is clear","Very Strong Agreement","Strong Agreement","Slight Agreement","Moderate Agreement","Very Strong Agreement","Strong Agreement","Very Strong Agreement","Strong Agreement","Very Strong Agreement","Very Strong Agreement","Strong Agreement","Very Strong Agreement","Strong Agreement","Very Strong Agreement","Strong Agreement","Moderate Agreement","Moderate Agreement","Very Strong Agreement"
"130","A2AXY7I6TCRVP5:32Z9ZLUT1MQ7SRJ2ZS9E4ZVH1HTHO9","2",8,10,3,"50","<p style=""font-size:100px""><b>b</b></p><p style=""position: absolute; top: 30px; right: 30px; text-align:right; font-size:50px"""">N = 3</p>","b",0,69,536.799999952316,0,"agree",18,19,19,20,19,"35","male","everything is clear","Very Strong Agreement","Strong Agreement","Slight Agreement","Moderate Agreement","Very Strong Agreement","Strong Agreement","Very Strong Agreement","Strong Agreement","Very Strong Agreement","Very Strong Agreement","Strong Agreement","Very Strong Agreement","Strong Agreement","Very Strong Agreement","Strong Agreement","Moderate Agreement","Moderate Agreement","Very Strong Agreement"
"131","A2AXY7I6TCRVP5:32Z9ZLUT1MQ7SRJ2ZS9E4ZVH1HTHO9","2",8,11,3,"50","<p style=""font-size:100px""><b>V</b></p><p style=""position: absolute; top: 30px; right: 30px; text-align:right; font-size:50px"""">N = 3</p>","V",0,69,777.599999904633,0,"agree",18,19,19,20,19,"35","male","everything is clear","Very Strong Agreement","Strong Agreement","Slight Agreement","Moderate Agreement","Very Strong Agreement","Strong Agreement","Very Strong Agreement","Strong Agreement","Very Strong Agreement","Very Strong Agreement","Strong Agreement","Very Strong Agreement","Strong Agreement","Very Strong Agreement","Strong Agreement","Moderate Agreement","Moderate Agreement","Very Strong Agreement"
"132","A2AXY7I6TCRVP5:32Z9ZLUT1MQ7SRJ2ZS9E4ZVH1HTHO9","2",8,12,3,"50","<p style=""font-size:100px""><b>b</b></p><p style=""position: absolute; top: 30px; right: 30px; text-align:right; font-size:50px"""">N = 3</p>","b",0,69,610.399999856949,0,"agree",18,19,19,20,19,"35","male","everything is clear","Very Strong Agreement","Strong Agreement","Slight Agreement","Moderate Agreement","Very Strong Agreement","Strong Agreement","Very Strong Agreement","Strong Agreement","Very Strong Agreement","Very Strong Agreement","Strong Agreement","Very Strong Agreement","Strong Agreement","Very Strong Agreement","Strong Agreement","Moderate Agreement","Moderate Agreement","Very Strong Agreement"
"133","A2AXY7I6TCRVP5:32Z9ZLUT1MQ7SRJ2ZS9E4ZVH1HTHO9","2",9,1,3,"50","<p style=""font-size:100px""><b>T</b></p><p style=""position: absolute; top: 30px; right: 30px; text-align:right; font-size:50px"""">N = 3</p>","T",0,NA,NA,0,"agree",19,19,17,19,17,"35","male","everything is clear","Very Strong Agreement","Strong Agreement","Slight Agreement","Moderate Agreement","Very Strong Agreement","Strong Agreement","Very Strong Agreement","Strong Agreement","Very Strong Agreement","Very Strong Agreement","Strong Agreement","Very Strong Agreement","Strong Agreement","Very Strong Agreement","Strong Agreement","Moderate Agreement","Moderate Agreement","Very Strong Agreement"
"134","A2AXY7I6TCRVP5:32Z9ZLUT1MQ7SRJ2ZS9E4ZVH1HTHO9","2",9,2,3,"50","<p style=""font-size:100px""><b>P</b></p><p style=""position: absolute; top: 30px; right: 30px; text-align:right; font-size:50px"""">N = 3</p>","P",0,73,595.700000047684,1,"agree",19,19,17,19,17,"35","male","everything is clear","Very Strong Agreement","Strong Agreement","Slight Agreement","Moderate Agreement","Very Strong Agreement","Strong Agreement","Very Strong Agreement","Strong Agreement","Very Strong Agreement","Very Strong Agreement","Strong Agreement","Very Strong Agreement","Strong Agreement","Very Strong Agreement","Strong Agreement","Moderate Agreement","Moderate Agreement","Very Strong Agreement"
"135","A2AXY7I6TCRVP5:32Z9ZLUT1MQ7SRJ2ZS9E4ZVH1HTHO9","2",9,3,3,"50","<p style=""font-size:100px""><b>G</b></p><p style=""position: absolute; top: 30px; right: 30px; text-align:right; font-size:50px"""">N = 3</p>","G",0,73,731.5,1,"agree",19,19,17,19,17,"35","male","everything is clear","Very Strong Agreement","Strong Agreement","Slight Agreement","Moderate Agreement","Very Strong Agreement","Strong Agreement","Very Strong Agreement","Strong Agreement","Very Strong Agreement","Very Strong Agreement","Strong Agreement","Very Strong Agreement","Strong Agreement","Very Strong Agreement","Strong Agreement","Moderate Agreement","Moderate Agreement","Very Strong Agreement"
"136","A2AXY7I6TCRVP5:32Z9ZLUT1MQ7SRJ2ZS9E4ZVH1HTHO9","2",9,4,3,"50","<p style=""font-size:100px""><b>T</b></p><p style=""position: absolute; top: 30px; right: 30px; text-align:right; font-size:50px"""">N = 3</p>","T",0,69,699.299999952316,0,"agree",19,19,17,19,17,"35","male","everything is clear","Very Strong Agreement","Strong Agreement","Slight Agreement","Moderate Agreement","Very Strong Agreement","Strong Agreement","Very Strong Agreement","Strong Agreement","Very Strong Agreement","Very Strong Agreement","Strong Agreement","Very Strong Agreement","Strong Agreement","Very Strong Agreement","Strong Agreement","Moderate Agreement","Moderate Agreement","Very Strong Agreement"
"137","A2AXY7I6TCRVP5:32Z9ZLUT1MQ7SRJ2ZS9E4ZVH1HTHO9","2",9,5,3,"50","<p style=""font-size:100px""><b>D</b></p><p style=""position: absolute; top: 30px; right: 30px; text-align:right; font-size:50px"""">N = 3</p>","D",0,69,771.099999904633,0,"agree",19,19,17,19,17,"35","male","everything is clear","Very Strong Agreement","Strong Agreement","Slight Agreement","Moderate Agreement","Very Strong Agreement","Strong Agreement","Very Strong Agreement","Strong Agreement","Very Strong Agreement","Very Strong Agreement","Strong Agreement","Very Strong Agreement","Strong Agreement","Very Strong Agreement","Strong Agreement","Moderate Agreement","Moderate Agreement","Very Strong Agreement"
"138","A2AXY7I6TCRVP5:32Z9ZLUT1MQ7SRJ2ZS9E4ZVH1HTHO9","2",9,6,3,"50","<p style=""font-size:100px""><b>G</b></p><p style=""position: absolute; top: 30px; right: 30px; text-align:right; font-size:50px"""">N = 3</p>","G",0,69,537.5,0,"agree",19,19,17,19,17,"35","male","everything is clear","Very Strong Agreement","Strong Agreement","Slight Agreement","Moderate Agreement","Very Strong Agreement","Strong Agreement","Very Strong Agreement","Strong Agreement","Very Strong Agreement","Very Strong Agreement","Strong Agreement","Very Strong Agreement","Strong Agreement","Very Strong Agreement","Strong Agreement","Moderate Agreement","Moderate Agreement","Very Strong Agreement"
"139","A2AXY7I6TCRVP5:32Z9ZLUT1MQ7SRJ2ZS9E4ZVH1HTHO9","2",9,7,3,"50","<p style=""font-size:100px""><b>D</b></p><p style=""position: absolute; top: 30px; right: 30px; text-align:right; font-size:50px"""">N = 3</p>","D",0,73,773.400000095367,1,"agree",19,19,17,19,17,"35","male","everything is clear","Very Strong Agreement","Strong Agreement","Slight Agreement","Moderate Agreement","Very Strong Agreement","Strong Agreement","Very Strong Agreement","Strong Agreement","Very Strong Agreement","Very Strong Agreement","Strong Agreement","Very Strong Agreement","Strong Agreement","Very Strong Agreement","Strong Agreement","Moderate Agreement","Moderate Agreement","Very Strong Agreement"
"140","A2AXY7I6TCRVP5:32Z9ZLUT1MQ7SRJ2ZS9E4ZVH1HTHO9","2",9,8,3,"50","<p style=""font-size:100px""><b>G</b></p><p style=""position: absolute; top: 30px; right: 30px; text-align:right; font-size:50px"""">N = 3</p>","G",0,69,736.5,0,"agree",19,19,17,19,17,"35","male","everything is clear","Very Strong Agreement","Strong Agreement","Slight Agreement","Moderate Agreement","Very Strong Agreement","Strong Agreement","Very Strong Agreement","Strong Agreement","Very Strong Agreement","Very Strong Agreement","Strong Agreement","Very Strong Agreement","Strong Agreement","Very Strong Agreement","Strong Agreement","Moderate Agreement","Moderate Agreement","Very Strong Agreement"
"141","A2AXY7I6TCRVP5:32Z9ZLUT1MQ7SRJ2ZS9E4ZVH1HTHO9","2",9,9,3,"50","<p style=""font-size:100px""><b>G</b></p><p style=""position: absolute; top: 30px; right: 30px; text-align:right; font-size:50px"""">N = 3</p>","G",0,69,516.400000095367,0,"agree",19,19,17,19,17,"35","male","everything is clear","Very Strong Agreement","Strong Agreement","Slight Agreement","Moderate Agreement","Very Strong Agreement","Strong Agreement","Very Strong Agreement","Strong Agreement","Very Strong Agreement","Very Strong Agreement","Strong Agreement","Very Strong Agreement","Strong Agreement","Very Strong Agreement","Strong Agreement","Moderate Agreement","Moderate Agreement","Very Strong Agreement"
"142","A2AXY7I6TCRVP5:32Z9ZLUT1MQ7SRJ2ZS9E4ZVH1HTHO9","2",9,10,3,"50","<p style=""font-size:100px""><b>v</b></p><p style=""position: absolute; top: 30px; right: 30px; text-align:right; font-size:50px"""">N = 3</p>","v",0,73,984.599999904633,1,"agree",19,19,17,19,17,"35","male","everything is clear","Very Strong Agreement","Strong Agreement","Slight Agreement","Moderate Agreement","Very Strong Agreement","Strong Agreement","Very Strong Agreement","Strong Agreement","Very Strong Agreement","Very Strong Agreement","Strong Agreement","Very Strong Agreement","Strong Agreement","Very Strong Agreement","Strong Agreement","Moderate Agreement","Moderate Agreement","Very Strong Agreement"
"143","A2AXY7I6TCRVP5:32Z9ZLUT1MQ7SRJ2ZS9E4ZVH1HTHO9","2",9,11,3,"50","<p style=""font-size:100px""><b>G</b></p><p style=""position: absolute; top: 30px; right: 30px; text-align:right; font-size:50px"""">N = 3</p>","G",0,69,649.799999952316,0,"agree",19,19,17,19,17,"35","male","everything is clear","Very Strong Agreement","Strong Agreement","Slight Agreement","Moderate Agreement","Very Strong Agreement","Strong Agreement","Very Strong Agreement","Strong Agreement","Very Strong Agreement","Very Strong Agreement","Strong Agreement","Very Strong Agreement","Strong Agreement","Very Strong Agreement","Strong Agreement","Moderate Agreement","Moderate Agreement","Very Strong Agreement"
"144","A2AXY7I6TCRVP5:32Z9ZLUT1MQ7SRJ2ZS9E4ZVH1HTHO9","2",9,12,3,"50","<p style=""font-size:100px""><b>D</b></p><p style=""position: absolute; top: 30px; right: 30px; text-align:right; font-size:50px"""">N = 3</p>","D",0,69,722.299999952316,0,"agree",19,19,17,19,17,"35","male","everything is clear","Very Strong Agreement","Strong Agreement","Slight Agreement","Moderate Agreement","Very Strong Agreement","Strong Agreement","Very Strong Agreement","Strong Agreement","Very Strong Agreement","Very Strong Agreement","Strong Agreement","Very Strong Agreement","Strong Agreement","Very Strong Agreement","Strong Agreement","Moderate Agreement","Moderate Agreement","Very Strong Agreement"
"145","A2AXY7I6TCRVP5:32Z9ZLUT1MQ7SRJ2ZS9E4ZVH1HTHO9","2",10,1,3,"5","<p style=""font-size:100px""><b>v</b></p><p style=""position: absolute; top: 30px; right: 30px; text-align:right; font-size:50px"""">N = 3</p>","v",0,69,423.700000047684,0,"agree",19,18,19,20,18,"35","male","everything is clear","Very Strong Agreement","Strong Agreement","Slight Agreement","Moderate Agreement","Very Strong Agreement","Strong Agreement","Very Strong Agreement","Strong Agreement","Very Strong Agreement","Very Strong Agreement","Strong Agreement","Very Strong Agreement","Strong Agreement","Very Strong Agreement","Strong Agreement","Moderate Agreement","Moderate Agreement","Very Strong Agreement"
