"","subject","run","block","trial","N","reward","stimulus","cue","isTarget","key_press","rt","acc","debrief","performance","frustration","demand","temporal","effort","age","gender","comments","nfc1","nfc2","nfc3","nfc4","nfc5","nfc6","nfc7","nfc8","nfc9","nfc10","nfc11","nfc12","nfc13","nfc14","nfc15","nfc16","nfc17","nfc18"
"1","A2SXCJEZG2B7ML:3EFE17QCRDBMQJBV69QNO45IY7EHSQ","practice",1,1,1,"NA","<p style=""font-size:100px""><b>B</b></p><p style=""position: absolute; top: 30px; right: 30px; text-align:right; font-size:50px"""">N = 1</p>","B",0,73,821,1,"agree",21,17,18,18,20,"38","Male","instructions its very well almost very clear  and helpful. Awesome task I am very impressing. ","Slight Agreement","Strong Agreement","Strong Agreement","Very Strong Agreement","Moderate Disagreement","Strong Agreement","Strong Agreement","Very Strong Agreement","Moderate Agreement","Strong Agreement","Very Strong Agreement","Strong Disagreement","Very Strong Agreement","Strong Agreement","Very Strong Disagreement","Strong Agreement","Very Strong Disagreement","Moderate Agreement"
"2","A2SXCJEZG2B7ML:3EFE17QCRDBMQJBV69QNO45IY7EHSQ","practice",1,2,1,"NA","<p style=""font-size:100px""><b>v</b></p><p style=""position: absolute; top: 30px; right: 30px; text-align:right; font-size:50px"""">N = 1</p>","v",0,73,756,1,"agree",21,17,18,18,20,"38","Male","instructions its very well almost very clear  and helpful. Awesome task I am very impressing. ","Slight Agreement","Strong Agreement","Strong Agreement","Very Strong Agreement","Moderate Disagreement","Strong Agreement","Strong Agreement","Very Strong Agreement","Moderate Agreement","Strong Agreement","Very Strong Agreement","Strong Disagreement","Very Strong Agreement","Strong Agreement","Very Strong Disagreement","Strong Agreement","Very Strong Disagreement","Moderate Agreement"
"3","A2SXCJEZG2B7ML:3EFE17QCRDBMQJBV69QNO45IY7EHSQ","practice",1,3,1,"NA","<p style=""font-size:100px""><b>v</b></p><p style=""position: absolute; top: 30px; right: 30px; text-align:right; font-size:50px"""">N = 1</p>","v",1,73,702,0,"agree",21,17,18,18,20,"38","Male","instructions its very well almost very clear  and helpful. Awesome task I am very impressing. ","Slight Agreement","Strong Agreement","Strong Agreement","Very Strong Agreement","Moderate Disagreement","Strong Agreement","Strong Agreement","Very Strong Agreement","Moderate Agreement","Strong Agreement","Very Strong Agreement","Strong Disagreement","Very Strong Agreement","Strong Agreement","Very Strong Disagreement","Strong Agreement","Very Strong Disagreement","Moderate Agreement"
"4","A2SXCJEZG2B7ML:3EFE17QCRDBMQJBV69QNO45IY7EHSQ","practice",1,4,1,"NA","<p style=""font-size:100px""><b>B</b></p><p style=""position: absolute; top: 30px; right: 30px; text-align:right; font-size:50px"""">N = 1</p>","B",0,73,797,1,"agree",21,17,18,18,20,"38","Male","instructions its very well almost very clear  and helpful. Awesome task I am very impressing. ","Slight Agreement","Strong Agreement","Strong Agreement","Very Strong Agreement","Moderate Disagreement","Strong Agreement","Strong Agreement","Very Strong Agreement","Moderate Agreement","Strong Agreement","Very Strong Agreement","Strong Disagreement","Very Strong Agreement","Strong Agreement","Very Strong Disagreement","Strong Agreement","Very Strong Disagreement","Moderate Agreement"
"5","A2SXCJEZG2B7ML:3EFE17QCRDBMQJBV69QNO45IY7EHSQ","practice",1,5,1,"NA","<p style=""font-size:100px""><b>P</b></p><p style=""position: absolute; top: 30px; right: 30px; text-align:right; font-size:50px"""">N = 1</p>","P",0,73,610,1,"agree",21,17,18,18,20,"38","Male","instructions its very well almost very clear  and helpful. Awesome task I am very impressing. ","Slight Agreement","Strong Agreement","Strong Agreement","Very Strong Agreement","Moderate Disagreement","Strong Agreement","Strong Agreement","Very Strong Agreement","Moderate Agreement","Strong Agreement","Very Strong Agreement","Strong Disagreement","Very Strong Agreement","Strong Agreement","Very Strong Disagreement","Strong Agreement","Very Strong Disagreement","Moderate Agreement"
"6","A2SXCJEZG2B7ML:3EFE17QCRDBMQJBV69QNO45IY7EHSQ","practice",1,6,1,"NA","<p style=""font-size:100px""><b>P</b></p><p style=""position: absolute; top: 30px; right: 30px; text-align:right; font-size:50px"""">N = 1</p>","P",1,73,632,0,"agree",21,17,18,18,20,"38","Male","instructions its very well almost very clear  and helpful. Awesome task I am very impressing. ","Slight Agreement","Strong Agreement","Strong Agreement","Very Strong Agreement","Moderate Disagreement","Strong Agreement","Strong Agreement","Very Strong Agreement","Moderate Agreement","Strong Agreement","Very Strong Agreement","Strong Disagreement","Very Strong Agreement","Strong Agreement","Very Strong Disagreement","Strong Agreement","Very Strong Disagreement","Moderate Agreement"
"7","A2SXCJEZG2B7ML:3EFE17QCRDBMQJBV69QNO45IY7EHSQ","practice",1,7,1,"NA","<p style=""font-size:100px""><b>t</b></p><p style=""position: absolute; top: 30px; right: 30px; text-align:right; font-size:50px"""">N = 1</p>","t",0,73,745,1,"agree",21,17,18,18,20,"38","Male","instructions its very well almost very clear  and helpful. Awesome task I am very impressing. ","Slight Agreement","Strong Agreement","Strong Agreement","Very Strong Agreement","Moderate Disagreement","Strong Agreement","Strong Agreement","Very Strong Agreement","Moderate Agreement","Strong Agreement","Very Strong Agreement","Strong Disagreement","Very Strong Agreement","Strong Agreement","Very Strong Disagreement","Strong Agreement","Very Strong Disagreement","Moderate Agreement"
"8","A2SXCJEZG2B7ML:3EFE17QCRDBMQJBV69QNO45IY7EHSQ","practice",1,8,1,"NA","<p style=""font-size:100px""><b>t</b></p><p style=""position: absolute; top: 30px; right: 30px; text-align:right; font-size:50px"""">N = 1</p>","t",1,69,705,1,"agree",21,17,18,18,20,"38","Male","instructions its very well almost very clear  and helpful. Awesome task I am very impressing. ","Slight Agreement","Strong Agreement","Strong Agreement","Very Strong Agreement","Moderate Disagreement","Strong Agreement","Strong Agreement","Very Strong Agreement","Moderate Agreement","Strong Agreement","Very Strong Agreement","Strong Disagreement","Very Strong Agreement","Strong Agreement","Very Strong Disagreement","Strong Agreement","Very Strong Disagreement","Moderate Agreement"
"9","A2SXCJEZG2B7ML:3EFE17QCRDBMQJBV69QNO45IY7EHSQ","practice",1,9,1,"NA","<p style=""font-size:100px""><b>b</b></p><p style=""position: absolute; top: 30px; right: 30px; text-align:right; font-size:50px"""">N = 1</p>","b",0,69,933,0,"agree",21,17,18,18,20,"38","Male","instructions its very well almost very clear  and helpful. Awesome task I am very impressing. ","Slight Agreement","Strong Agreement","Strong Agreement","Very Strong Agreement","Moderate Disagreement","Strong Agreement","Strong Agreement","Very Strong Agreement","Moderate Agreement","Strong Agreement","Very Strong Agreement","Strong Disagreement","Very Strong Agreement","Strong Agreement","Very Strong Disagreement","Strong Agreement","Very Strong Disagreement","Moderate Agreement"
"10","A2SXCJEZG2B7ML:3EFE17QCRDBMQJBV69QNO45IY7EHSQ","practice",1,10,1,"NA","<p style=""font-size:100px""><b>p</b></p><p style=""position: absolute; top: 30px; right: 30px; text-align:right; font-size:50px"""">N = 1</p>","p",0,73,750,1,"agree",21,17,18,18,20,"38","Male","instructions its very well almost very clear  and helpful. Awesome task I am very impressing. ","Slight Agreement","Strong Agreement","Strong Agreement","Very Strong Agreement","Moderate Disagreement","Strong Agreement","Strong Agreement","Very Strong Agreement","Moderate Agreement","Strong Agreement","Very Strong Agreement","Strong Disagreement","Very Strong Agreement","Strong Agreement","Very Strong Disagreement","Strong Agreement","Very Strong Disagreement","Moderate Agreement"
"11","A2SXCJEZG2B7ML:3EFE17QCRDBMQJBV69QNO45IY7EHSQ","practice",1,11,1,"NA","<p style=""font-size:100px""><b>p</b></p><p style=""position: absolute; top: 30px; right: 30px; text-align:right; font-size:50px"""">N = 1</p>","p",1,69,827,1,"agree",21,17,18,18,20,"38","Male","instructions its very well almost very clear  and helpful. Awesome task I am very impressing. ","Slight Agreement","Strong Agreement","Strong Agreement","Very Strong Agreement","Moderate Disagreement","Strong Agreement","Strong Agreement","Very Strong Agreement","Moderate Agreement","Strong Agreement","Very Strong Agreement","Strong Disagreement","Very Strong Agreement","Strong Agreement","Very Strong Disagreement","Strong Agreement","Very Strong Disagreement","Moderate Agreement"
"12","A2SXCJEZG2B7ML:3EFE17QCRDBMQJBV69QNO45IY7EHSQ","practice",1,12,1,"NA","<p style=""font-size:100px""><b>B</b></p><p style=""position: absolute; top: 30px; right: 30px; text-align:right; font-size:50px"""">N = 1</p>","B",0,69,1038,0,"agree",21,17,18,18,20,"38","Male","instructions its very well almost very clear  and helpful. Awesome task I am very impressing. ","Slight Agreement","Strong Agreement","Strong Agreement","Very Strong Agreement","Moderate Disagreement","Strong Agreement","Strong Agreement","Very Strong Agreement","Moderate Agreement","Strong Agreement","Very Strong Agreement","Strong Disagreement","Very Strong Agreement","Strong Agreement","Very Strong Disagreement","Strong Agreement","Very Strong Disagreement","Moderate Agreement"
"13","A2SXCJEZG2B7ML:3EFE17QCRDBMQJBV69QNO45IY7EHSQ","practice",2,1,2,"NA","<p style=""font-size:100px""><b>B</b></p><p style=""position: absolute; top: 30px; right: 30px; text-align:right; font-size:50px"""">N = 2</p>","B",0,73,753,1,"agree",21,17,18,18,20,"38","Male","instructions its very well almost very clear  and helpful. Awesome task I am very impressing. ","Slight Agreement","Strong Agreement","Strong Agreement","Very Strong Agreement","Moderate Disagreement","Strong Agreement","Strong Agreement","Very Strong Agreement","Moderate Agreement","Strong Agreement","Very Strong Agreement","Strong Disagreement","Very Strong Agreement","Strong Agreement","Very Strong Disagreement","Strong Agreement","Very Strong Disagreement","Moderate Agreement"
"14","A2SXCJEZG2B7ML:3EFE17QCRDBMQJBV69QNO45IY7EHSQ","practice",2,2,2,"NA","<p style=""font-size:100px""><b>b</b></p><p style=""position: absolute; top: 30px; right: 30px; text-align:right; font-size:50px"""">N = 2</p>","b",0,73,1035,1,"agree",21,17,18,18,20,"38","Male","instructions its very well almost very clear  and helpful. Awesome task I am very impressing. ","Slight Agreement","Strong Agreement","Strong Agreement","Very Strong Agreement","Moderate Disagreement","Strong Agreement","Strong Agreement","Very Strong Agreement","Moderate Agreement","Strong Agreement","Very Strong Agreement","Strong Disagreement","Very Strong Agreement","Strong Agreement","Very Strong Disagreement","Strong Agreement","Very Strong Disagreement","Moderate Agreement"
"15","A2SXCJEZG2B7ML:3EFE17QCRDBMQJBV69QNO45IY7EHSQ","practice",2,3,2,"NA","<p style=""font-size:100px""><b>V</b></p><p style=""position: absolute; top: 30px; right: 30px; text-align:right; font-size:50px"""">N = 2</p>","V",0,73,730,1,"agree",21,17,18,18,20,"38","Male","instructions its very well almost very clear  and helpful. Awesome task I am very impressing. ","Slight Agreement","Strong Agreement","Strong Agreement","Very Strong Agreement","Moderate Disagreement","Strong Agreement","Strong Agreement","Very Strong Agreement","Moderate Agreement","Strong Agreement","Very Strong Agreement","Strong Disagreement","Very Strong Agreement","Strong Agreement","Very Strong Disagreement","Strong Agreement","Very Strong Disagreement","Moderate Agreement"
"16","A2SXCJEZG2B7ML:3EFE17QCRDBMQJBV69QNO45IY7EHSQ","practice",2,4,2,"NA","<p style=""font-size:100px""><b>b</b></p><p style=""position: absolute; top: 30px; right: 30px; text-align:right; font-size:50px"""">N = 2</p>","b",1,73,1014,0,"agree",21,17,18,18,20,"38","Male","instructions its very well almost very clear  and helpful. Awesome task I am very impressing. ","Slight Agreement","Strong Agreement","Strong Agreement","Very Strong Agreement","Moderate Disagreement","Strong Agreement","Strong Agreement","Very Strong Agreement","Moderate Agreement","Strong Agreement","Very Strong Agreement","Strong Disagreement","Very Strong Agreement","Strong Agreement","Very Strong Disagreement","Strong Agreement","Very Strong Disagreement","Moderate Agreement"
"17","A2SXCJEZG2B7ML:3EFE17QCRDBMQJBV69QNO45IY7EHSQ","practice",2,5,2,"NA","<p style=""font-size:100px""><b>V</b></p><p style=""position: absolute; top: 30px; right: 30px; text-align:right; font-size:50px"""">N = 2</p>","V",1,69,670,1,"agree",21,17,18,18,20,"38","Male","instructions its very well almost very clear  and helpful. Awesome task I am very impressing. ","Slight Agreement","Strong Agreement","Strong Agreement","Very Strong Agreement","Moderate Disagreement","Strong Agreement","Strong Agreement","Very Strong Agreement","Moderate Agreement","Strong Agreement","Very Strong Agreement","Strong Disagreement","Very Strong Agreement","Strong Agreement","Very Strong Disagreement","Strong Agreement","Very Strong Disagreement","Moderate Agreement"
"18","A2SXCJEZG2B7ML:3EFE17QCRDBMQJBV69QNO45IY7EHSQ","practice",2,6,2,"NA","<p style=""font-size:100px""><b>V</b></p><p style=""position: absolute; top: 30px; right: 30px; text-align:right; font-size:50px"""">N = 2</p>","V",0,69,904,0,"agree",21,17,18,18,20,"38","Male","instructions its very well almost very clear  and helpful. Awesome task I am very impressing. ","Slight Agreement","Strong Agreement","Strong Agreement","Very Strong Agreement","Moderate Disagreement","Strong Agreement","Strong Agreement","Very Strong Agreement","Moderate Agreement","Strong Agreement","Very Strong Agreement","Strong Disagreement","Very Strong Agreement","Strong Agreement","Very Strong Disagreement","Strong Agreement","Very Strong Disagreement","Moderate Agreement"
"19","A2SXCJEZG2B7ML:3EFE17QCRDBMQJBV69QNO45IY7EHSQ","practice",2,7,2,"NA","<p style=""font-size:100px""><b>g</b></p><p style=""position: absolute; top: 30px; right: 30px; text-align:right; font-size:50px"""">N = 2</p>","g",0,69,738,0,"agree",21,17,18,18,20,"38","Male","instructions its very well almost very clear  and helpful. Awesome task I am very impressing. ","Slight Agreement","Strong Agreement","Strong Agreement","Very Strong Agreement","Moderate Disagreement","Strong Agreement","Strong Agreement","Very Strong Agreement","Moderate Agreement","Strong Agreement","Very Strong Agreement","Strong Disagreement","Very Strong Agreement","Strong Agreement","Very Strong Disagreement","Strong Agreement","Very Strong Disagreement","Moderate Agreement"
"20","A2SXCJEZG2B7ML:3EFE17QCRDBMQJBV69QNO45IY7EHSQ","practice",2,8,2,"NA","<p style=""font-size:100px""><b>b</b></p><p style=""position: absolute; top: 30px; right: 30px; text-align:right; font-size:50px"""">N = 2</p>","b",0,73,720,1,"agree",21,17,18,18,20,"38","Male","instructions its very well almost very clear  and helpful. Awesome task I am very impressing. ","Slight Agreement","Strong Agreement","Strong Agreement","Very Strong Agreement","Moderate Disagreement","Strong Agreement","Strong Agreement","Very Strong Agreement","Moderate Agreement","Strong Agreement","Very Strong Agreement","Strong Disagreement","Very Strong Agreement","Strong Agreement","Very Strong Disagreement","Strong Agreement","Very Strong Disagreement","Moderate Agreement"
"21","A2SXCJEZG2B7ML:3EFE17QCRDBMQJBV69QNO45IY7EHSQ","practice",2,9,2,"NA","<p style=""font-size:100px""><b>t</b></p><p style=""position: absolute; top: 30px; right: 30px; text-align:right; font-size:50px"""">N = 2</p>","t",0,69,865,0,"agree",21,17,18,18,20,"38","Male","instructions its very well almost very clear  and helpful. Awesome task I am very impressing. ","Slight Agreement","Strong Agreement","Strong Agreement","Very Strong Agreement","Moderate Disagreement","Strong Agreement","Strong Agreement","Very Strong Agreement","Moderate Agreement","Strong Agreement","Very Strong Agreement","Strong Disagreement","Very Strong Agreement","Strong Agreement","Very Strong Disagreement","Strong Agreement","Very Strong Disagreement","Moderate Agreement"
"22","A2SXCJEZG2B7ML:3EFE17QCRDBMQJBV69QNO45IY7EHSQ","practice",2,10,2,"NA","<p style=""font-size:100px""><b>b</b></p><p style=""position: absolute; top: 30px; right: 30px; text-align:right; font-size:50px"""">N = 2</p>","b",1,73,871,0,"agree",21,17,18,18,20,"38","Male","instructions its very well almost very clear  and helpful. Awesome task I am very impressing. ","Slight Agreement","Strong Agreement","Strong Agreement","Very Strong Agreement","Moderate Disagreement","Strong Agreement","Strong Agreement","Very Strong Agreement","Moderate Agreement","Strong Agreement","Very Strong Agreement","Strong Disagreement","Very Strong Agreement","Strong Agreement","Very Strong Disagreement","Strong Agreement","Very Strong Disagreement","Moderate Agreement"
"23","A2SXCJEZG2B7ML:3EFE17QCRDBMQJBV69QNO45IY7EHSQ","practice",2,11,2,"NA","<p style=""font-size:100px""><b>t</b></p><p style=""position: absolute; top: 30px; right: 30px; text-align:right; font-size:50px"""">N = 2</p>","t",1,73,965,0,"agree",21,17,18,18,20,"38","Male","instructions its very well almost very clear  and helpful. Awesome task I am very impressing. ","Slight Agreement","Strong Agreement","Strong Agreement","Very Strong Agreement","Moderate Disagreement","Strong Agreement","Strong Agreement","Very Strong Agreement","Moderate Agreement","Strong Agreement","Very Strong Agreement","Strong Disagreement","Very Strong Agreement","Strong Agreement","Very Strong Disagreement","Strong Agreement","Very Strong Disagreement","Moderate Agreement"
"24","A2SXCJEZG2B7ML:3EFE17QCRDBMQJBV69QNO45IY7EHSQ","practice",2,12,2,"NA","<p style=""font-size:100px""><b>g</b></p><p style=""position: absolute; top: 30px; right: 30px; text-align:right; font-size:50px"""">N = 2</p>","g",0,69,1066,0,"agree",21,17,18,18,20,"38","Male","instructions its very well almost very clear  and helpful. Awesome task I am very impressing. ","Slight Agreement","Strong Agreement","Strong Agreement","Very Strong Agreement","Moderate Disagreement","Strong Agreement","Strong Agreement","Very Strong Agreement","Moderate Agreement","Strong Agreement","Very Strong Agreement","Strong Disagreement","Very Strong Agreement","Strong Agreement","Very Strong Disagreement","Strong Agreement","Very Strong Disagreement","Moderate Agreement"
"25","A2SXCJEZG2B7ML:3EFE17QCRDBMQJBV69QNO45IY7EHSQ","practice",3,1,3,"NA","<p style=""font-size:100px""><b>G</b></p><p style=""position: absolute; top: 30px; right: 30px; text-align:right; font-size:50px"""">N = 3</p>","G",0,73,774,1,"agree",21,17,18,18,20,"38","Male","instructions its very well almost very clear  and helpful. Awesome task I am very impressing. ","Slight Agreement","Strong Agreement","Strong Agreement","Very Strong Agreement","Moderate Disagreement","Strong Agreement","Strong Agreement","Very Strong Agreement","Moderate Agreement","Strong Agreement","Very Strong Agreement","Strong Disagreement","Very Strong Agreement","Strong Agreement","Very Strong Disagreement","Strong Agreement","Very Strong Disagreement","Moderate Agreement"
"26","A2SXCJEZG2B7ML:3EFE17QCRDBMQJBV69QNO45IY7EHSQ","practice",3,2,3,"NA","<p style=""font-size:100px""><b>V</b></p><p style=""position: absolute; top: 30px; right: 30px; text-align:right; font-size:50px"""">N = 3</p>","V",0,73,831,1,"agree",21,17,18,18,20,"38","Male","instructions its very well almost very clear  and helpful. Awesome task I am very impressing. ","Slight Agreement","Strong Agreement","Strong Agreement","Very Strong Agreement","Moderate Disagreement","Strong Agreement","Strong Agreement","Very Strong Agreement","Moderate Agreement","Strong Agreement","Very Strong Agreement","Strong Disagreement","Very Strong Agreement","Strong Agreement","Very Strong Disagreement","Strong Agreement","Very Strong Disagreement","Moderate Agreement"
"27","A2SXCJEZG2B7ML:3EFE17QCRDBMQJBV69QNO45IY7EHSQ","practice",3,3,3,"NA","<p style=""font-size:100px""><b>P</b></p><p style=""position: absolute; top: 30px; right: 30px; text-align:right; font-size:50px"""">N = 3</p>","P",0,73,779,1,"agree",21,17,18,18,20,"38","Male","instructions its very well almost very clear  and helpful. Awesome task I am very impressing. ","Slight Agreement","Strong Agreement","Strong Agreement","Very Strong Agreement","Moderate Disagreement","Strong Agreement","Strong Agreement","Very Strong Agreement","Moderate Agreement","Strong Agreement","Very Strong Agreement","Strong Disagreement","Very Strong Agreement","Strong Agreement","Very Strong Disagreement","Strong Agreement","Very Strong Disagreement","Moderate Agreement"
"28","A2SXCJEZG2B7ML:3EFE17QCRDBMQJBV69QNO45IY7EHSQ","practice",3,4,3,"NA","<p style=""font-size:100px""><b>G</b></p><p style=""position: absolute; top: 30px; right: 30px; text-align:right; font-size:50px"""">N = 3</p>","G",1,73,710,0,"agree",21,17,18,18,20,"38","Male","instructions its very well almost very clear  and helpful. Awesome task I am very impressing. ","Slight Agreement","Strong Agreement","Strong Agreement","Very Strong Agreement","Moderate Disagreement","Strong Agreement","Strong Agreement","Very Strong Agreement","Moderate Agreement","Strong Agreement","Very Strong Agreement","Strong Disagreement","Very Strong Agreement","Strong Agreement","Very Strong Disagreement","Strong Agreement","Very Strong Disagreement","Moderate Agreement"
"29","A2SXCJEZG2B7ML:3EFE17QCRDBMQJBV69QNO45IY7EHSQ","practice",3,5,3,"NA","<p style=""font-size:100px""><b>G</b></p><p style=""position: absolute; top: 30px; right: 30px; text-align:right; font-size:50px"""">N = 3</p>","G",0,69,875,0,"agree",21,17,18,18,20,"38","Male","instructions its very well almost very clear  and helpful. Awesome task I am very impressing. ","Slight Agreement","Strong Agreement","Strong Agreement","Very Strong Agreement","Moderate Disagreement","Strong Agreement","Strong Agreement","Very Strong Agreement","Moderate Agreement","Strong Agreement","Very Strong Agreement","Strong Disagreement","Very Strong Agreement","Strong Agreement","Very Strong Disagreement","Strong Agreement","Very Strong Disagreement","Moderate Agreement"
"30","A2SXCJEZG2B7ML:3EFE17QCRDBMQJBV69QNO45IY7EHSQ","practice",3,6,3,"NA","<p style=""font-size:100px""><b>P</b></p><p style=""position: absolute; top: 30px; right: 30px; text-align:right; font-size:50px"""">N = 3</p>","P",1,73,990,0,"agree",21,17,18,18,20,"38","Male","instructions its very well almost very clear  and helpful. Awesome task I am very impressing. ","Slight Agreement","Strong Agreement","Strong Agreement","Very Strong Agreement","Moderate Disagreement","Strong Agreement","Strong Agreement","Very Strong Agreement","Moderate Agreement","Strong Agreement","Very Strong Agreement","Strong Disagreement","Very Strong Agreement","Strong Agreement","Very Strong Disagreement","Strong Agreement","Very Strong Disagreement","Moderate Agreement"
"31","A2SXCJEZG2B7ML:3EFE17QCRDBMQJBV69QNO45IY7EHSQ","practice",3,7,3,"NA","<p style=""font-size:100px""><b>G</b></p><p style=""position: absolute; top: 30px; right: 30px; text-align:right; font-size:50px"""">N = 3</p>","G",1,69,1213,1,"agree",21,17,18,18,20,"38","Male","instructions its very well almost very clear  and helpful. Awesome task I am very impressing. ","Slight Agreement","Strong Agreement","Strong Agreement","Very Strong Agreement","Moderate Disagreement","Strong Agreement","Strong Agreement","Very Strong Agreement","Moderate Agreement","Strong Agreement","Very Strong Agreement","Strong Disagreement","Very Strong Agreement","Strong Agreement","Very Strong Disagreement","Strong Agreement","Very Strong Disagreement","Moderate Agreement"
"32","A2SXCJEZG2B7ML:3EFE17QCRDBMQJBV69QNO45IY7EHSQ","practice",3,8,3,"NA","<p style=""font-size:100px""><b>T</b></p><p style=""position: absolute; top: 30px; right: 30px; text-align:right; font-size:50px"""">N = 3</p>","T",0,73,856,1,"agree",21,17,18,18,20,"38","Male","instructions its very well almost very clear  and helpful. Awesome task I am very impressing. ","Slight Agreement","Strong Agreement","Strong Agreement","Very Strong Agreement","Moderate Disagreement","Strong Agreement","Strong Agreement","Very Strong Agreement","Moderate Agreement","Strong Agreement","Very Strong Agreement","Strong Disagreement","Very Strong Agreement","Strong Agreement","Very Strong Disagreement","Strong Agreement","Very Strong Disagreement","Moderate Agreement"
"33","A2SXCJEZG2B7ML:3EFE17QCRDBMQJBV69QNO45IY7EHSQ","practice",3,9,3,"NA","<p style=""font-size:100px""><b>P</b></p><p style=""position: absolute; top: 30px; right: 30px; text-align:right; font-size:50px"""">N = 3</p>","P",1,69,829,1,"agree",21,17,18,18,20,"38","Male","instructions its very well almost very clear  and helpful. Awesome task I am very impressing. ","Slight Agreement","Strong Agreement","Strong Agreement","Very Strong Agreement","Moderate Disagreement","Strong Agreement","Strong Agreement","Very Strong Agreement","Moderate Agreement","Strong Agreement","Very Strong Agreement","Strong Disagreement","Very Strong Agreement","Strong Agreement","Very Strong Disagreement","Strong Agreement","Very Strong Disagreement","Moderate Agreement"
"34","A2SXCJEZG2B7ML:3EFE17QCRDBMQJBV69QNO45IY7EHSQ","practice",3,10,3,"NA","<p style=""font-size:100px""><b>t</b></p><p style=""position: absolute; top: 30px; right: 30px; text-align:right; font-size:50px"""">N = 3</p>","t",0,69,821,0,"agree",21,17,18,18,20,"38","Male","instructions its very well almost very clear  and helpful. Awesome task I am very impressing. ","Slight Agreement","Strong Agreement","Strong Agreement","Very Strong Agreement","Moderate Disagreement","Strong Agreement","Strong Agreement","Very Strong Agreement","Moderate Agreement","Strong Agreement","Very Strong Agreement","Strong Disagreement","Very Strong Agreement","Strong Agreement","Very Strong Disagreement","Strong Agreement","Very Strong Disagreement","Moderate Agreement"
"35","A2SXCJEZG2B7ML:3EFE17QCRDBMQJBV69QNO45IY7EHSQ","practice",3,11,3,"NA","<p style=""font-size:100px""><b>p</b></p><p style=""position: absolute; top: 30px; right: 30px; text-align:right; font-size:50px"""">N = 3</p>","p",0,69,1183,0,"agree",21,17,18,18,20,"38","Male","instructions its very well almost very clear  and helpful. Awesome task I am very impressing. ","Slight Agreement","Strong Agreement","Strong Agreement","Very Strong Agreement","Moderate Disagreement","Strong Agreement","Strong Agreement","Very Strong Agreement","Moderate Agreement","Strong Agreement","Very Strong Agreement","Strong Disagreement","Very Strong Agreement","Strong Agreement","Very Strong Disagreement","Strong Agreement","Very Strong Disagreement","Moderate Agreement"
"36","A2SXCJEZG2B7ML:3EFE17QCRDBMQJBV69QNO45IY7EHSQ","practice",3,12,3,"NA","<p style=""font-size:100px""><b>V</b></p><p style=""position: absolute; top: 30px; right: 30px; text-align:right; font-size:50px"""">N = 3</p>","V",0,73,1263,1,"agree",21,17,18,18,20,"38","Male","instructions its very well almost very clear  and helpful. Awesome task I am very impressing. ","Slight Agreement","Strong Agreement","Strong Agreement","Very Strong Agreement","Moderate Disagreement","Strong Agreement","Strong Agreement","Very Strong Agreement","Moderate Agreement","Strong Agreement","Very Strong Agreement","Strong Disagreement","Very Strong Agreement","Strong Agreement","Very Strong Disagreement","Strong Agreement","Very Strong Disagreement","Moderate Agreement"
"37","A2SXCJEZG2B7ML:3EFE17QCRDBMQJBV69QNO45IY7EHSQ","1",1,1,1,"50","<p style=""font-size:100px""><b>t</b></p><p style=""position: absolute; top: 30px; right: 30px; text-align:right; font-size:50px"""">N = 1</p>","t",0,69,147,0,"agree",21,17,18,18,20,"38","Male","instructions its very well almost very clear  and helpful. Awesome task I am very impressing. ","Slight Agreement","Strong Agreement","Strong Agreement","Very Strong Agreement","Moderate Disagreement","Strong Agreement","Strong Agreement","Very Strong Agreement","Moderate Agreement","Strong Agreement","Very Strong Agreement","Strong Disagreement","Very Strong Agreement","Strong Agreement","Very Strong Disagreement","Strong Agreement","Very Strong Disagreement","Moderate Agreement"
"38","A2SXCJEZG2B7ML:3EFE17QCRDBMQJBV69QNO45IY7EHSQ","1",1,2,1,"50","<p style=""font-size:100px""><b>t</b></p><p style=""position: absolute; top: 30px; right: 30px; text-align:right; font-size:50px"""">N = 1</p>","t",0,73,975,1,"agree",21,17,18,18,20,"38","Male","instructions its very well almost very clear  and helpful. Awesome task I am very impressing. ","Slight Agreement","Strong Agreement","Strong Agreement","Very Strong Agreement","Moderate Disagreement","Strong Agreement","Strong Agreement","Very Strong Agreement","Moderate Agreement","Strong Agreement","Very Strong Agreement","Strong Disagreement","Very Strong Agreement","Strong Agreement","Very Strong Disagreement","Strong Agreement","Very Strong Disagreement","Moderate Agreement"
"39","A2SXCJEZG2B7ML:3EFE17QCRDBMQJBV69QNO45IY7EHSQ","1",1,3,1,"50","<p style=""font-size:100px""><b>D</b></p><p style=""position: absolute; top: 30px; right: 30px; text-align:right; font-size:50px"""">N = 1</p>","D",0,69,649,0,"agree",21,17,18,18,20,"38","Male","instructions its very well almost very clear  and helpful. Awesome task I am very impressing. ","Slight Agreement","Strong Agreement","Strong Agreement","Very Strong Agreement","Moderate Disagreement","Strong Agreement","Strong Agreement","Very Strong Agreement","Moderate Agreement","Strong Agreement","Very Strong Agreement","Strong Disagreement","Very Strong Agreement","Strong Agreement","Very Strong Disagreement","Strong Agreement","Very Strong Disagreement","Moderate Agreement"
"40","A2SXCJEZG2B7ML:3EFE17QCRDBMQJBV69QNO45IY7EHSQ","1",1,4,1,"50","<p style=""font-size:100px""><b>P</b></p><p style=""position: absolute; top: 30px; right: 30px; text-align:right; font-size:50px"""">N = 1</p>","P",0,73,855,1,"agree",21,17,18,18,20,"38","Male","instructions its very well almost very clear  and helpful. Awesome task I am very impressing. ","Slight Agreement","Strong Agreement","Strong Agreement","Very Strong Agreement","Moderate Disagreement","Strong Agreement","Strong Agreement","Very Strong Agreement","Moderate Agreement","Strong Agreement","Very Strong Agreement","Strong Disagreement","Very Strong Agreement","Strong Agreement","Very Strong Disagreement","Strong Agreement","Very Strong Disagreement","Moderate Agreement"
"41","A2SXCJEZG2B7ML:3EFE17QCRDBMQJBV69QNO45IY7EHSQ","1",1,5,1,"50","<p style=""font-size:100px""><b>g</b></p><p style=""position: absolute; top: 30px; right: 30px; text-align:right; font-size:50px"""">N = 1</p>","g",0,73,613,1,"agree",21,17,18,18,20,"38","Male","instructions its very well almost very clear  and helpful. Awesome task I am very impressing. ","Slight Agreement","Strong Agreement","Strong Agreement","Very Strong Agreement","Moderate Disagreement","Strong Agreement","Strong Agreement","Very Strong Agreement","Moderate Agreement","Strong Agreement","Very Strong Agreement","Strong Disagreement","Very Strong Agreement","Strong Agreement","Very Strong Disagreement","Strong Agreement","Very Strong Disagreement","Moderate Agreement"
"42","A2SXCJEZG2B7ML:3EFE17QCRDBMQJBV69QNO45IY7EHSQ","1",1,6,1,"50","<p style=""font-size:100px""><b>V</b></p><p style=""position: absolute; top: 30px; right: 30px; text-align:right; font-size:50px"""">N = 1</p>","V",0,73,755,1,"agree",21,17,18,18,20,"38","Male","instructions its very well almost very clear  and helpful. Awesome task I am very impressing. ","Slight Agreement","Strong Agreement","Strong Agreement","Very Strong Agreement","Moderate Disagreement","Strong Agreement","Strong Agreement","Very Strong Agreement","Moderate Agreement","Strong Agreement","Very Strong Agreement","Strong Disagreement","Very Strong Agreement","Strong Agreement","Very Strong Disagreement","Strong Agreement","Very Strong Disagreement","Moderate Agreement"
"43","A2SXCJEZG2B7ML:3EFE17QCRDBMQJBV69QNO45IY7EHSQ","1",1,7,1,"50","<p style=""font-size:100px""><b>V</b></p><p style=""position: absolute; top: 30px; right: 30px; text-align:right; font-size:50px"""">N = 1</p>","V",0,69,630,0,"agree",21,17,18,18,20,"38","Male","instructions its very well almost very clear  and helpful. Awesome task I am very impressing. ","Slight Agreement","Strong Agreement","Strong Agreement","Very Strong Agreement","Moderate Disagreement","Strong Agreement","Strong Agreement","Very Strong Agreement","Moderate Agreement","Strong Agreement","Very Strong Agreement","Strong Disagreement","Very Strong Agreement","Strong Agreement","Very Strong Disagreement","Strong Agreement","Very Strong Disagreement","Moderate Agreement"
"44","A2SXCJEZG2B7ML:3EFE17QCRDBMQJBV69QNO45IY7EHSQ","1",1,8,1,"50","<p style=""font-size:100px""><b>p</b></p><p style=""position: absolute; top: 30px; right: 30px; text-align:right; font-size:50px"""">N = 1</p>","p",0,69,827,0,"agree",21,17,18,18,20,"38","Male","instructions its very well almost very clear  and helpful. Awesome task I am very impressing. ","Slight Agreement","Strong Agreement","Strong Agreement","Very Strong Agreement","Moderate Disagreement","Strong Agreement","Strong Agreement","Very Strong Agreement","Moderate Agreement","Strong Agreement","Very Strong Agreement","Strong Disagreement","Very Strong Agreement","Strong Agreement","Very Strong Disagreement","Strong Agreement","Very Strong Disagreement","Moderate Agreement"
"45","A2SXCJEZG2B7ML:3EFE17QCRDBMQJBV69QNO45IY7EHSQ","1",1,9,1,"50","<p style=""font-size:100px""><b>p</b></p><p style=""position: absolute; top: 30px; right: 30px; text-align:right; font-size:50px"""">N = 1</p>","p",0,69,856,0,"agree",21,17,18,18,20,"38","Male","instructions its very well almost very clear  and helpful. Awesome task I am very impressing. ","Slight Agreement","Strong Agreement","Strong Agreement","Very Strong Agreement","Moderate Disagreement","Strong Agreement","Strong Agreement","Very Strong Agreement","Moderate Agreement","Strong Agreement","Very Strong Agreement","Strong Disagreement","Very Strong Agreement","Strong Agreement","Very Strong Disagreement","Strong Agreement","Very Strong Disagreement","Moderate Agreement"
"46","A2SXCJEZG2B7ML:3EFE17QCRDBMQJBV69QNO45IY7EHSQ","1",1,10,1,"50","<p style=""font-size:100px""><b>p</b></p><p style=""position: absolute; top: 30px; right: 30px; text-align:right; font-size:50px"""">N = 1</p>","p",0,73,741,1,"agree",21,17,18,18,20,"38","Male","instructions its very well almost very clear  and helpful. Awesome task I am very impressing. ","Slight Agreement","Strong Agreement","Strong Agreement","Very Strong Agreement","Moderate Disagreement","Strong Agreement","Strong Agreement","Very Strong Agreement","Moderate Agreement","Strong Agreement","Very Strong Agreement","Strong Disagreement","Very Strong Agreement","Strong Agreement","Very Strong Disagreement","Strong Agreement","Very Strong Disagreement","Moderate Agreement"
"47","A2SXCJEZG2B7ML:3EFE17QCRDBMQJBV69QNO45IY7EHSQ","1",1,11,1,"50","<p style=""font-size:100px""><b>B</b></p><p style=""position: absolute; top: 30px; right: 30px; text-align:right; font-size:50px"""">N = 1</p>","B",0,73,715,1,"agree",21,17,18,18,20,"38","Male","instructions its very well almost very clear  and helpful. Awesome task I am very impressing. ","Slight Agreement","Strong Agreement","Strong Agreement","Very Strong Agreement","Moderate Disagreement","Strong Agreement","Strong Agreement","Very Strong Agreement","Moderate Agreement","Strong Agreement","Very Strong Agreement","Strong Disagreement","Very Strong Agreement","Strong Agreement","Very Strong Disagreement","Strong Agreement","Very Strong Disagreement","Moderate Agreement"
"48","A2SXCJEZG2B7ML:3EFE17QCRDBMQJBV69QNO45IY7EHSQ","1",1,12,1,"50","<p style=""font-size:100px""><b>D</b></p><p style=""position: absolute; top: 30px; right: 30px; text-align:right; font-size:50px"""">N = 1</p>","D",0,69,723,0,"agree",21,17,18,18,20,"38","Male","instructions its very well almost very clear  and helpful. Awesome task I am very impressing. ","Slight Agreement","Strong Agreement","Strong Agreement","Very Strong Agreement","Moderate Disagreement","Strong Agreement","Strong Agreement","Very Strong Agreement","Moderate Agreement","Strong Agreement","Very Strong Agreement","Strong Disagreement","Very Strong Agreement","Strong Agreement","Very Strong Disagreement","Strong Agreement","Very Strong Disagreement","Moderate Agreement"
"49","A2SXCJEZG2B7ML:3EFE17QCRDBMQJBV69QNO45IY7EHSQ","1",2,1,3,"50","<p style=""font-size:100px""><b>v</b></p><p style=""position: absolute; top: 30px; right: 30px; text-align:right; font-size:50px"""">N = 3</p>","v",0,73,670,1,"agree",19,19,14,18,15,"38","Male","instructions its very well almost very clear  and helpful. Awesome task I am very impressing. ","Slight Agreement","Strong Agreement","Strong Agreement","Very Strong Agreement","Moderate Disagreement","Strong Agreement","Strong Agreement","Very Strong Agreement","Moderate Agreement","Strong Agreement","Very Strong Agreement","Strong Disagreement","Very Strong Agreement","Strong Agreement","Very Strong Disagreement","Strong Agreement","Very Strong Disagreement","Moderate Agreement"
"50","A2SXCJEZG2B7ML:3EFE17QCRDBMQJBV69QNO45IY7EHSQ","1",2,2,3,"50","<p style=""font-size:100px""><b>b</b></p><p style=""position: absolute; top: 30px; right: 30px; text-align:right; font-size:50px"""">N = 3</p>","b",0,73,664,1,"agree",19,19,14,18,15,"38","Male","instructions its very well almost very clear  and helpful. Awesome task I am very impressing. ","Slight Agreement","Strong Agreement","Strong Agreement","Very Strong Agreement","Moderate Disagreement","Strong Agreement","Strong Agreement","Very Strong Agreement","Moderate Agreement","Strong Agreement","Very Strong Agreement","Strong Disagreement","Very Strong Agreement","Strong Agreement","Very Strong Disagreement","Strong Agreement","Very Strong Disagreement","Moderate Agreement"
"51","A2SXCJEZG2B7ML:3EFE17QCRDBMQJBV69QNO45IY7EHSQ","1",2,3,3,"50","<p style=""font-size:100px""><b>g</b></p><p style=""position: absolute; top: 30px; right: 30px; text-align:right; font-size:50px"""">N = 3</p>","g",0,73,693,1,"agree",19,19,14,18,15,"38","Male","instructions its very well almost very clear  and helpful. Awesome task I am very impressing. ","Slight Agreement","Strong Agreement","Strong Agreement","Very Strong Agreement","Moderate Disagreement","Strong Agreement","Strong Agreement","Very Strong Agreement","Moderate Agreement","Strong Agreement","Very Strong Agreement","Strong Disagreement","Very Strong Agreement","Strong Agreement","Very Strong Disagreement","Strong Agreement","Very Strong Disagreement","Moderate Agreement"
"52","A2SXCJEZG2B7ML:3EFE17QCRDBMQJBV69QNO45IY7EHSQ","1",2,4,3,"50","<p style=""font-size:100px""><b>b</b></p><p style=""position: absolute; top: 30px; right: 30px; text-align:right; font-size:50px"""">N = 3</p>","b",0,69,778,0,"agree",19,19,14,18,15,"38","Male","instructions its very well almost very clear  and helpful. Awesome task I am very impressing. ","Slight Agreement","Strong Agreement","Strong Agreement","Very Strong Agreement","Moderate Disagreement","Strong Agreement","Strong Agreement","Very Strong Agreement","Moderate Agreement","Strong Agreement","Very Strong Agreement","Strong Disagreement","Very Strong Agreement","Strong Agreement","Very Strong Disagreement","Strong Agreement","Very Strong Disagreement","Moderate Agreement"
"53","A2SXCJEZG2B7ML:3EFE17QCRDBMQJBV69QNO45IY7EHSQ","1",2,5,3,"50","<p style=""font-size:100px""><b>b</b></p><p style=""position: absolute; top: 30px; right: 30px; text-align:right; font-size:50px"""">N = 3</p>","b",0,69,712,0,"agree",19,19,14,18,15,"38","Male","instructions its very well almost very clear  and helpful. Awesome task I am very impressing. ","Slight Agreement","Strong Agreement","Strong Agreement","Very Strong Agreement","Moderate Disagreement","Strong Agreement","Strong Agreement","Very Strong Agreement","Moderate Agreement","Strong Agreement","Very Strong Agreement","Strong Disagreement","Very Strong Agreement","Strong Agreement","Very Strong Disagreement","Strong Agreement","Very Strong Disagreement","Moderate Agreement"
"54","A2SXCJEZG2B7ML:3EFE17QCRDBMQJBV69QNO45IY7EHSQ","1",2,6,3,"50","<p style=""font-size:100px""><b>g</b></p><p style=""position: absolute; top: 30px; right: 30px; text-align:right; font-size:50px"""">N = 3</p>","g",0,73,641,1,"agree",19,19,14,18,15,"38","Male","instructions its very well almost very clear  and helpful. Awesome task I am very impressing. ","Slight Agreement","Strong Agreement","Strong Agreement","Very Strong Agreement","Moderate Disagreement","Strong Agreement","Strong Agreement","Very Strong Agreement","Moderate Agreement","Strong Agreement","Very Strong Agreement","Strong Disagreement","Very Strong Agreement","Strong Agreement","Very Strong Disagreement","Strong Agreement","Very Strong Disagreement","Moderate Agreement"
"55","A2SXCJEZG2B7ML:3EFE17QCRDBMQJBV69QNO45IY7EHSQ","1",2,7,3,"50","<p style=""font-size:100px""><b>D</b></p><p style=""position: absolute; top: 30px; right: 30px; text-align:right; font-size:50px"""">N = 3</p>","D",0,69,698,0,"agree",19,19,14,18,15,"38","Male","instructions its very well almost very clear  and helpful. Awesome task I am very impressing. ","Slight Agreement","Strong Agreement","Strong Agreement","Very Strong Agreement","Moderate Disagreement","Strong Agreement","Strong Agreement","Very Strong Agreement","Moderate Agreement","Strong Agreement","Very Strong Agreement","Strong Disagreement","Very Strong Agreement","Strong Agreement","Very Strong Disagreement","Strong Agreement","Very Strong Disagreement","Moderate Agreement"
"56","A2SXCJEZG2B7ML:3EFE17QCRDBMQJBV69QNO45IY7EHSQ","1",2,8,3,"50","<p style=""font-size:100px""><b>D</b></p><p style=""position: absolute; top: 30px; right: 30px; text-align:right; font-size:50px"""">N = 3</p>","D",0,69,799,0,"agree",19,19,14,18,15,"38","Male","instructions its very well almost very clear  and helpful. Awesome task I am very impressing. ","Slight Agreement","Strong Agreement","Strong Agreement","Very Strong Agreement","Moderate Disagreement","Strong Agreement","Strong Agreement","Very Strong Agreement","Moderate Agreement","Strong Agreement","Very Strong Agreement","Strong Disagreement","Very Strong Agreement","Strong Agreement","Very Strong Disagreement","Strong Agreement","Very Strong Disagreement","Moderate Agreement"
"57","A2SXCJEZG2B7ML:3EFE17QCRDBMQJBV69QNO45IY7EHSQ","1",2,9,3,"50","<p style=""font-size:100px""><b>g</b></p><p style=""position: absolute; top: 30px; right: 30px; text-align:right; font-size:50px"""">N = 3</p>","g",0,73,618,1,"agree",19,19,14,18,15,"38","Male","instructions its very well almost very clear  and helpful. Awesome task I am very impressing. ","Slight Agreement","Strong Agreement","Strong Agreement","Very Strong Agreement","Moderate Disagreement","Strong Agreement","Strong Agreement","Very Strong Agreement","Moderate Agreement","Strong Agreement","Very Strong Agreement","Strong Disagreement","Very Strong Agreement","Strong Agreement","Very Strong Disagreement","Strong Agreement","Very Strong Disagreement","Moderate Agreement"
"58","A2SXCJEZG2B7ML:3EFE17QCRDBMQJBV69QNO45IY7EHSQ","1",2,10,3,"50","<p style=""font-size:100px""><b>t</b></p><p style=""position: absolute; top: 30px; right: 30px; text-align:right; font-size:50px"""">N = 3</p>","t",0,73,653,1,"agree",19,19,14,18,15,"38","Male","instructions its very well almost very clear  and helpful. Awesome task I am very impressing. ","Slight Agreement","Strong Agreement","Strong Agreement","Very Strong Agreement","Moderate Disagreement","Strong Agreement","Strong Agreement","Very Strong Agreement","Moderate Agreement","Strong Agreement","Very Strong Agreement","Strong Disagreement","Very Strong Agreement","Strong Agreement","Very Strong Disagreement","Strong Agreement","Very Strong Disagreement","Moderate Agreement"
"59","A2SXCJEZG2B7ML:3EFE17QCRDBMQJBV69QNO45IY7EHSQ","1",2,11,3,"50","<p style=""font-size:100px""><b>G</b></p><p style=""position: absolute; top: 30px; right: 30px; text-align:right; font-size:50px"""">N = 3</p>","G",0,69,739,0,"agree",19,19,14,18,15,"38","Male","instructions its very well almost very clear  and helpful. Awesome task I am very impressing. ","Slight Agreement","Strong Agreement","Strong Agreement","Very Strong Agreement","Moderate Disagreement","Strong Agreement","Strong Agreement","Very Strong Agreement","Moderate Agreement","Strong Agreement","Very Strong Agreement","Strong Disagreement","Very Strong Agreement","Strong Agreement","Very Strong Disagreement","Strong Agreement","Very Strong Disagreement","Moderate Agreement"
"60","A2SXCJEZG2B7ML:3EFE17QCRDBMQJBV69QNO45IY7EHSQ","1",2,12,3,"50","<p style=""font-size:100px""><b>g</b></p><p style=""position: absolute; top: 30px; right: 30px; text-align:right; font-size:50px"""">N = 3</p>","g",0,69,746,0,"agree",19,19,14,18,15,"38","Male","instructions its very well almost very clear  and helpful. Awesome task I am very impressing. ","Slight Agreement","Strong Agreement","Strong Agreement","Very Strong Agreement","Moderate Disagreement","Strong Agreement","Strong Agreement","Very Strong Agreement","Moderate Agreement","Strong Agreement","Very Strong Agreement","Strong Disagreement","Very Strong Agreement","Strong Agreement","Very Strong Disagreement","Strong Agreement","Very Strong Disagreement","Moderate Agreement"
"61","A2SXCJEZG2B7ML:3EFE17QCRDBMQJBV69QNO45IY7EHSQ","1",3,1,2,"5","<p style=""font-size:100px""><b>G</b></p><p style=""position: absolute; top: 30px; right: 30px; text-align:right; font-size:50px"""">N = 2</p>","G",0,73,562,1,"agree",19,17,14,20,15,"38","Male","instructions its very well almost very clear  and helpful. Awesome task I am very impressing. ","Slight Agreement","Strong Agreement","Strong Agreement","Very Strong Agreement","Moderate Disagreement","Strong Agreement","Strong Agreement","Very Strong Agreement","Moderate Agreement","Strong Agreement","Very Strong Agreement","Strong Disagreement","Very Strong Agreement","Strong Agreement","Very Strong Disagreement","Strong Agreement","Very Strong Disagreement","Moderate Agreement"
"62","A2SXCJEZG2B7ML:3EFE17QCRDBMQJBV69QNO45IY7EHSQ","1",3,2,2,"5","<p style=""font-size:100px""><b>v</b></p><p style=""position: absolute; top: 30px; right: 30px; text-align:right; font-size:50px"""">N = 2</p>","v",0,73,715,1,"agree",19,17,14,20,15,"38","Male","instructions its very well almost very clear  and helpful. Awesome task I am very impressing. ","Slight Agreement","Strong Agreement","Strong Agreement","Very Strong Agreement","Moderate Disagreement","Strong Agreement","Strong Agreement","Very Strong Agreement","Moderate Agreement","Strong Agreement","Very Strong Agreement","Strong Disagreement","Very Strong Agreement","Strong Agreement","Very Strong Disagreement","Strong Agreement","Very Strong Disagreement","Moderate Agreement"
"63","A2SXCJEZG2B7ML:3EFE17QCRDBMQJBV69QNO45IY7EHSQ","1",3,3,2,"5","<p style=""font-size:100px""><b>V</b></p><p style=""position: absolute; top: 30px; right: 30px; text-align:right; font-size:50px"""">N = 2</p>","V",0,69,790,0,"agree",19,17,14,20,15,"38","Male","instructions its very well almost very clear  and helpful. Awesome task I am very impressing. ","Slight Agreement","Strong Agreement","Strong Agreement","Very Strong Agreement","Moderate Disagreement","Strong Agreement","Strong Agreement","Very Strong Agreement","Moderate Agreement","Strong Agreement","Very Strong Agreement","Strong Disagreement","Very Strong Agreement","Strong Agreement","Very Strong Disagreement","Strong Agreement","Very Strong Disagreement","Moderate Agreement"
"64","A2SXCJEZG2B7ML:3EFE17QCRDBMQJBV69QNO45IY7EHSQ","1",3,4,2,"5","<p style=""font-size:100px""><b>v</b></p><p style=""position: absolute; top: 30px; right: 30px; text-align:right; font-size:50px"""">N = 2</p>","v",0,69,860,0,"agree",19,17,14,20,15,"38","Male","instructions its very well almost very clear  and helpful. Awesome task I am very impressing. ","Slight Agreement","Strong Agreement","Strong Agreement","Very Strong Agreement","Moderate Disagreement","Strong Agreement","Strong Agreement","Very Strong Agreement","Moderate Agreement","Strong Agreement","Very Strong Agreement","Strong Disagreement","Very Strong Agreement","Strong Agreement","Very Strong Disagreement","Strong Agreement","Very Strong Disagreement","Moderate Agreement"
"65","A2SXCJEZG2B7ML:3EFE17QCRDBMQJBV69QNO45IY7EHSQ","1",3,5,2,"5","<p style=""font-size:100px""><b>B</b></p><p style=""position: absolute; top: 30px; right: 30px; text-align:right; font-size:50px"""">N = 2</p>","B",0,73,535,1,"agree",19,17,14,20,15,"38","Male","instructions its very well almost very clear  and helpful. Awesome task I am very impressing. ","Slight Agreement","Strong Agreement","Strong Agreement","Very Strong Agreement","Moderate Disagreement","Strong Agreement","Strong Agreement","Very Strong Agreement","Moderate Agreement","Strong Agreement","Very Strong Agreement","Strong Disagreement","Very Strong Agreement","Strong Agreement","Very Strong Disagreement","Strong Agreement","Very Strong Disagreement","Moderate Agreement"
"66","A2SXCJEZG2B7ML:3EFE17QCRDBMQJBV69QNO45IY7EHSQ","1",3,6,2,"5","<p style=""font-size:100px""><b>v</b></p><p style=""position: absolute; top: 30px; right: 30px; text-align:right; font-size:50px"""">N = 2</p>","v",0,69,823,0,"agree",19,17,14,20,15,"38","Male","instructions its very well almost very clear  and helpful. Awesome task I am very impressing. ","Slight Agreement","Strong Agreement","Strong Agreement","Very Strong Agreement","Moderate Disagreement","Strong Agreement","Strong Agreement","Very Strong Agreement","Moderate Agreement","Strong Agreement","Very Strong Agreement","Strong Disagreement","Very Strong Agreement","Strong Agreement","Very Strong Disagreement","Strong Agreement","Very Strong Disagreement","Moderate Agreement"
"67","A2SXCJEZG2B7ML:3EFE17QCRDBMQJBV69QNO45IY7EHSQ","1",3,7,2,"5","<p style=""font-size:100px""><b>B</b></p><p style=""position: absolute; top: 30px; right: 30px; text-align:right; font-size:50px"""">N = 2</p>","B",0,69,966,0,"agree",19,17,14,20,15,"38","Male","instructions its very well almost very clear  and helpful. Awesome task I am very impressing. ","Slight Agreement","Strong Agreement","Strong Agreement","Very Strong Agreement","Moderate Disagreement","Strong Agreement","Strong Agreement","Very Strong Agreement","Moderate Agreement","Strong Agreement","Very Strong Agreement","Strong Disagreement","Very Strong Agreement","Strong Agreement","Very Strong Disagreement","Strong Agreement","Very Strong Disagreement","Moderate Agreement"
"68","A2SXCJEZG2B7ML:3EFE17QCRDBMQJBV69QNO45IY7EHSQ","1",3,8,2,"5","<p style=""font-size:100px""><b>P</b></p><p style=""position: absolute; top: 30px; right: 30px; text-align:right; font-size:50px"""">N = 2</p>","P",0,73,588,1,"agree",19,17,14,20,15,"38","Male","instructions its very well almost very clear  and helpful. Awesome task I am very impressing. ","Slight Agreement","Strong Agreement","Strong Agreement","Very Strong Agreement","Moderate Disagreement","Strong Agreement","Strong Agreement","Very Strong Agreement","Moderate Agreement","Strong Agreement","Very Strong Agreement","Strong Disagreement","Very Strong Agreement","Strong Agreement","Very Strong Disagreement","Strong Agreement","Very Strong Disagreement","Moderate Agreement"
"69","A2SXCJEZG2B7ML:3EFE17QCRDBMQJBV69QNO45IY7EHSQ","1",3,9,2,"5","<p style=""font-size:100px""><b>B</b></p><p style=""position: absolute; top: 30px; right: 30px; text-align:right; font-size:50px"""">N = 2</p>","B",0,73,830,1,"agree",19,17,14,20,15,"38","Male","instructions its very well almost very clear  and helpful. Awesome task I am very impressing. ","Slight Agreement","Strong Agreement","Strong Agreement","Very Strong Agreement","Moderate Disagreement","Strong Agreement","Strong Agreement","Very Strong Agreement","Moderate Agreement","Strong Agreement","Very Strong Agreement","Strong Disagreement","Very Strong Agreement","Strong Agreement","Very Strong Disagreement","Strong Agreement","Very Strong Disagreement","Moderate Agreement"
"70","A2SXCJEZG2B7ML:3EFE17QCRDBMQJBV69QNO45IY7EHSQ","1",3,10,2,"5","<p style=""font-size:100px""><b>g</b></p><p style=""position: absolute; top: 30px; right: 30px; text-align:right; font-size:50px"""">N = 2</p>","g",0,NA,NA,0,"agree",19,17,14,20,15,"38","Male","instructions its very well almost very clear  and helpful. Awesome task I am very impressing. ","Slight Agreement","Strong Agreement","Strong Agreement","Very Strong Agreement","Moderate Disagreement","Strong Agreement","Strong Agreement","Very Strong Agreement","Moderate Agreement","Strong Agreement","Very Strong Agreement","Strong Disagreement","Very Strong Agreement","Strong Agreement","Very Strong Disagreement","Strong Agreement","Very Strong Disagreement","Moderate Agreement"
"71","A2SXCJEZG2B7ML:3EFE17QCRDBMQJBV69QNO45IY7EHSQ","1",3,11,2,"5","<p style=""font-size:100px""><b>t</b></p><p style=""position: absolute; top: 30px; right: 30px; text-align:right; font-size:50px"""">N = 2</p>","t",0,69,705,0,"agree",19,17,14,20,15,"38","Male","instructions its very well almost very clear  and helpful. Awesome task I am very impressing. ","Slight Agreement","Strong Agreement","Strong Agreement","Very Strong Agreement","Moderate Disagreement","Strong Agreement","Strong Agreement","Very Strong Agreement","Moderate Agreement","Strong Agreement","Very Strong Agreement","Strong Disagreement","Very Strong Agreement","Strong Agreement","Very Strong Disagreement","Strong Agreement","Very Strong Disagreement","Moderate Agreement"
"72","A2SXCJEZG2B7ML:3EFE17QCRDBMQJBV69QNO45IY7EHSQ","1",3,12,2,"5","<p style=""font-size:100px""><b>d</b></p><p style=""position: absolute; top: 30px; right: 30px; text-align:right; font-size:50px"""">N = 2</p>","d",0,73,869,1,"agree",19,17,14,20,15,"38","Male","instructions its very well almost very clear  and helpful. Awesome task I am very impressing. ","Slight Agreement","Strong Agreement","Strong Agreement","Very Strong Agreement","Moderate Disagreement","Strong Agreement","Strong Agreement","Very Strong Agreement","Moderate Agreement","Strong Agreement","Very Strong Agreement","Strong Disagreement","Very Strong Agreement","Strong Agreement","Very Strong Disagreement","Strong Agreement","Very Strong Disagreement","Moderate Agreement"
"73","A2SXCJEZG2B7ML:3EFE17QCRDBMQJBV69QNO45IY7EHSQ","1",4,1,1,"5","<p style=""font-size:100px""><b>D</b></p><p style=""position: absolute; top: 30px; right: 30px; text-align:right; font-size:50px"""">N = 1</p>","D",0,73,562,1,"agree",15,18,15,19,19,"38","Male","instructions its very well almost very clear  and helpful. Awesome task I am very impressing. ","Slight Agreement","Strong Agreement","Strong Agreement","Very Strong Agreement","Moderate Disagreement","Strong Agreement","Strong Agreement","Very Strong Agreement","Moderate Agreement","Strong Agreement","Very Strong Agreement","Strong Disagreement","Very Strong Agreement","Strong Agreement","Very Strong Disagreement","Strong Agreement","Very Strong Disagreement","Moderate Agreement"
"74","A2SXCJEZG2B7ML:3EFE17QCRDBMQJBV69QNO45IY7EHSQ","1",4,2,1,"5","<p style=""font-size:100px""><b>G</b></p><p style=""position: absolute; top: 30px; right: 30px; text-align:right; font-size:50px"""">N = 1</p>","G",0,73,631,1,"agree",15,18,15,19,19,"38","Male","instructions its very well almost very clear  and helpful. Awesome task I am very impressing. ","Slight Agreement","Strong Agreement","Strong Agreement","Very Strong Agreement","Moderate Disagreement","Strong Agreement","Strong Agreement","Very Strong Agreement","Moderate Agreement","Strong Agreement","Very Strong Agreement","Strong Disagreement","Very Strong Agreement","Strong Agreement","Very Strong Disagreement","Strong Agreement","Very Strong Disagreement","Moderate Agreement"
"75","A2SXCJEZG2B7ML:3EFE17QCRDBMQJBV69QNO45IY7EHSQ","1",4,3,1,"5","<p style=""font-size:100px""><b>d</b></p><p style=""position: absolute; top: 30px; right: 30px; text-align:right; font-size:50px"""">N = 1</p>","d",0,73,719,1,"agree",15,18,15,19,19,"38","Male","instructions its very well almost very clear  and helpful. Awesome task I am very impressing. ","Slight Agreement","Strong Agreement","Strong Agreement","Very Strong Agreement","Moderate Disagreement","Strong Agreement","Strong Agreement","Very Strong Agreement","Moderate Agreement","Strong Agreement","Very Strong Agreement","Strong Disagreement","Very Strong Agreement","Strong Agreement","Very Strong Disagreement","Strong Agreement","Very Strong Disagreement","Moderate Agreement"
"76","A2SXCJEZG2B7ML:3EFE17QCRDBMQJBV69QNO45IY7EHSQ","1",4,4,1,"5","<p style=""font-size:100px""><b>d</b></p><p style=""position: absolute; top: 30px; right: 30px; text-align:right; font-size:50px"""">N = 1</p>","d",0,73,821,1,"agree",15,18,15,19,19,"38","Male","instructions its very well almost very clear  and helpful. Awesome task I am very impressing. ","Slight Agreement","Strong Agreement","Strong Agreement","Very Strong Agreement","Moderate Disagreement","Strong Agreement","Strong Agreement","Very Strong Agreement","Moderate Agreement","Strong Agreement","Very Strong Agreement","Strong Disagreement","Very Strong Agreement","Strong Agreement","Very Strong Disagreement","Strong Agreement","Very Strong Disagreement","Moderate Agreement"
"77","A2SXCJEZG2B7ML:3EFE17QCRDBMQJBV69QNO45IY7EHSQ","1",4,5,1,"5","<p style=""font-size:100px""><b>p</b></p><p style=""position: absolute; top: 30px; right: 30px; text-align:right; font-size:50px"""">N = 1</p>","p",0,73,804,1,"agree",15,18,15,19,19,"38","Male","instructions its very well almost very clear  and helpful. Awesome task I am very impressing. ","Slight Agreement","Strong Agreement","Strong Agreement","Very Strong Agreement","Moderate Disagreement","Strong Agreement","Strong Agreement","Very Strong Agreement","Moderate Agreement","Strong Agreement","Very Strong Agreement","Strong Disagreement","Very Strong Agreement","Strong Agreement","Very Strong Disagreement","Strong Agreement","Very Strong Disagreement","Moderate Agreement"
"78","A2SXCJEZG2B7ML:3EFE17QCRDBMQJBV69QNO45IY7EHSQ","1",4,6,1,"5","<p style=""font-size:100px""><b>p</b></p><p style=""position: absolute; top: 30px; right: 30px; text-align:right; font-size:50px"""">N = 1</p>","p",0,69,848,0,"agree",15,18,15,19,19,"38","Male","instructions its very well almost very clear  and helpful. Awesome task I am very impressing. ","Slight Agreement","Strong Agreement","Strong Agreement","Very Strong Agreement","Moderate Disagreement","Strong Agreement","Strong Agreement","Very Strong Agreement","Moderate Agreement","Strong Agreement","Very Strong Agreement","Strong Disagreement","Very Strong Agreement","Strong Agreement","Very Strong Disagreement","Strong Agreement","Very Strong Disagreement","Moderate Agreement"
"79","A2SXCJEZG2B7ML:3EFE17QCRDBMQJBV69QNO45IY7EHSQ","1",4,7,1,"5","<p style=""font-size:100px""><b>p</b></p><p style=""position: absolute; top: 30px; right: 30px; text-align:right; font-size:50px"""">N = 1</p>","p",0,69,808,0,"agree",15,18,15,19,19,"38","Male","instructions its very well almost very clear  and helpful. Awesome task I am very impressing. ","Slight Agreement","Strong Agreement","Strong Agreement","Very Strong Agreement","Moderate Disagreement","Strong Agreement","Strong Agreement","Very Strong Agreement","Moderate Agreement","Strong Agreement","Very Strong Agreement","Strong Disagreement","Very Strong Agreement","Strong Agreement","Very Strong Disagreement","Strong Agreement","Very Strong Disagreement","Moderate Agreement"
"80","A2SXCJEZG2B7ML:3EFE17QCRDBMQJBV69QNO45IY7EHSQ","1",4,8,1,"5","<p style=""font-size:100px""><b>T</b></p><p style=""position: absolute; top: 30px; right: 30px; text-align:right; font-size:50px"""">N = 1</p>","T",0,73,654,1,"agree",15,18,15,19,19,"38","Male","instructions its very well almost very clear  and helpful. Awesome task I am very impressing. ","Slight Agreement","Strong Agreement","Strong Agreement","Very Strong Agreement","Moderate Disagreement","Strong Agreement","Strong Agreement","Very Strong Agreement","Moderate Agreement","Strong Agreement","Very Strong Agreement","Strong Disagreement","Very Strong Agreement","Strong Agreement","Very Strong Disagreement","Strong Agreement","Very Strong Disagreement","Moderate Agreement"
"81","A2SXCJEZG2B7ML:3EFE17QCRDBMQJBV69QNO45IY7EHSQ","1",4,9,1,"5","<p style=""font-size:100px""><b>G</b></p><p style=""position: absolute; top: 30px; right: 30px; text-align:right; font-size:50px"""">N = 1</p>","G",0,73,705,1,"agree",15,18,15,19,19,"38","Male","instructions its very well almost very clear  and helpful. Awesome task I am very impressing. ","Slight Agreement","Strong Agreement","Strong Agreement","Very Strong Agreement","Moderate Disagreement","Strong Agreement","Strong Agreement","Very Strong Agreement","Moderate Agreement","Strong Agreement","Very Strong Agreement","Strong Disagreement","Very Strong Agreement","Strong Agreement","Very Strong Disagreement","Strong Agreement","Very Strong Disagreement","Moderate Agreement"
"82","A2SXCJEZG2B7ML:3EFE17QCRDBMQJBV69QNO45IY7EHSQ","1",4,10,1,"5","<p style=""font-size:100px""><b>v</b></p><p style=""position: absolute; top: 30px; right: 30px; text-align:right; font-size:50px"""">N = 1</p>","v",0,NA,NA,0,"agree",15,18,15,19,19,"38","Male","instructions its very well almost very clear  and helpful. Awesome task I am very impressing. ","Slight Agreement","Strong Agreement","Strong Agreement","Very Strong Agreement","Moderate Disagreement","Strong Agreement","Strong Agreement","Very Strong Agreement","Moderate Agreement","Strong Agreement","Very Strong Agreement","Strong Disagreement","Very Strong Agreement","Strong Agreement","Very Strong Disagreement","Strong Agreement","Very Strong Disagreement","Moderate Agreement"
"83","A2SXCJEZG2B7ML:3EFE17QCRDBMQJBV69QNO45IY7EHSQ","1",4,11,1,"5","<p style=""font-size:100px""><b>v</b></p><p style=""position: absolute; top: 30px; right: 30px; text-align:right; font-size:50px"""">N = 1</p>","v",0,69,883,0,"agree",15,18,15,19,19,"38","Male","instructions its very well almost very clear  and helpful. Awesome task I am very impressing. ","Slight Agreement","Strong Agreement","Strong Agreement","Very Strong Agreement","Moderate Disagreement","Strong Agreement","Strong Agreement","Very Strong Agreement","Moderate Agreement","Strong Agreement","Very Strong Agreement","Strong Disagreement","Very Strong Agreement","Strong Agreement","Very Strong Disagreement","Strong Agreement","Very Strong Disagreement","Moderate Agreement"
"84","A2SXCJEZG2B7ML:3EFE17QCRDBMQJBV69QNO45IY7EHSQ","1",4,12,1,"5","<p style=""font-size:100px""><b>d</b></p><p style=""position: absolute; top: 30px; right: 30px; text-align:right; font-size:50px"""">N = 1</p>","d",0,69,811,0,"agree",15,18,15,19,19,"38","Male","instructions its very well almost very clear  and helpful. Awesome task I am very impressing. ","Slight Agreement","Strong Agreement","Strong Agreement","Very Strong Agreement","Moderate Disagreement","Strong Agreement","Strong Agreement","Very Strong Agreement","Moderate Agreement","Strong Agreement","Very Strong Agreement","Strong Disagreement","Very Strong Agreement","Strong Agreement","Very Strong Disagreement","Strong Agreement","Very Strong Disagreement","Moderate Agreement"
"85","A2SXCJEZG2B7ML:3EFE17QCRDBMQJBV69QNO45IY7EHSQ","1",5,1,3,"50","<p style=""font-size:100px""><b>b</b></p><p style=""position: absolute; top: 30px; right: 30px; text-align:right; font-size:50px"""">N = 3</p>","b",0,73,561,1,"agree",16,18,19,14,19,"38","Male","instructions its very well almost very clear  and helpful. Awesome task I am very impressing. ","Slight Agreement","Strong Agreement","Strong Agreement","Very Strong Agreement","Moderate Disagreement","Strong Agreement","Strong Agreement","Very Strong Agreement","Moderate Agreement","Strong Agreement","Very Strong Agreement","Strong Disagreement","Very Strong Agreement","Strong Agreement","Very Strong Disagreement","Strong Agreement","Very Strong Disagreement","Moderate Agreement"
"86","A2SXCJEZG2B7ML:3EFE17QCRDBMQJBV69QNO45IY7EHSQ","1",5,2,3,"50","<p style=""font-size:100px""><b>B</b></p><p style=""position: absolute; top: 30px; right: 30px; text-align:right; font-size:50px"""">N = 3</p>","B",0,73,681,1,"agree",16,18,19,14,19,"38","Male","instructions its very well almost very clear  and helpful. Awesome task I am very impressing. ","Slight Agreement","Strong Agreement","Strong Agreement","Very Strong Agreement","Moderate Disagreement","Strong Agreement","Strong Agreement","Very Strong Agreement","Moderate Agreement","Strong Agreement","Very Strong Agreement","Strong Disagreement","Very Strong Agreement","Strong Agreement","Very Strong Disagreement","Strong Agreement","Very Strong Disagreement","Moderate Agreement"
"87","A2SXCJEZG2B7ML:3EFE17QCRDBMQJBV69QNO45IY7EHSQ","1",5,3,3,"50","<p style=""font-size:100px""><b>V</b></p><p style=""position: absolute; top: 30px; right: 30px; text-align:right; font-size:50px"""">N = 3</p>","V",0,73,642,1,"agree",16,18,19,14,19,"38","Male","instructions its very well almost very clear  and helpful. Awesome task I am very impressing. ","Slight Agreement","Strong Agreement","Strong Agreement","Very Strong Agreement","Moderate Disagreement","Strong Agreement","Strong Agreement","Very Strong Agreement","Moderate Agreement","Strong Agreement","Very Strong Agreement","Strong Disagreement","Very Strong Agreement","Strong Agreement","Very Strong Disagreement","Strong Agreement","Very Strong Disagreement","Moderate Agreement"
"88","A2SXCJEZG2B7ML:3EFE17QCRDBMQJBV69QNO45IY7EHSQ","1",5,4,3,"50","<p style=""font-size:100px""><b>D</b></p><p style=""position: absolute; top: 30px; right: 30px; text-align:right; font-size:50px"""">N = 3</p>","D",0,73,852,1,"agree",16,18,19,14,19,"38","Male","instructions its very well almost very clear  and helpful. Awesome task I am very impressing. ","Slight Agreement","Strong Agreement","Strong Agreement","Very Strong Agreement","Moderate Disagreement","Strong Agreement","Strong Agreement","Very Strong Agreement","Moderate Agreement","Strong Agreement","Very Strong Agreement","Strong Disagreement","Very Strong Agreement","Strong Agreement","Very Strong Disagreement","Strong Agreement","Very Strong Disagreement","Moderate Agreement"
"89","A2SXCJEZG2B7ML:3EFE17QCRDBMQJBV69QNO45IY7EHSQ","1",5,5,3,"50","<p style=""font-size:100px""><b>B</b></p><p style=""position: absolute; top: 30px; right: 30px; text-align:right; font-size:50px"""">N = 3</p>","B",0,69,706,0,"agree",16,18,19,14,19,"38","Male","instructions its very well almost very clear  and helpful. Awesome task I am very impressing. ","Slight Agreement","Strong Agreement","Strong Agreement","Very Strong Agreement","Moderate Disagreement","Strong Agreement","Strong Agreement","Very Strong Agreement","Moderate Agreement","Strong Agreement","Very Strong Agreement","Strong Disagreement","Very Strong Agreement","Strong Agreement","Very Strong Disagreement","Strong Agreement","Very Strong Disagreement","Moderate Agreement"
"90","A2SXCJEZG2B7ML:3EFE17QCRDBMQJBV69QNO45IY7EHSQ","1",5,6,3,"50","<p style=""font-size:100px""><b>B</b></p><p style=""position: absolute; top: 30px; right: 30px; text-align:right; font-size:50px"""">N = 3</p>","B",0,69,836,0,"agree",16,18,19,14,19,"38","Male","instructions its very well almost very clear  and helpful. Awesome task I am very impressing. ","Slight Agreement","Strong Agreement","Strong Agreement","Very Strong Agreement","Moderate Disagreement","Strong Agreement","Strong Agreement","Very Strong Agreement","Moderate Agreement","Strong Agreement","Very Strong Agreement","Strong Disagreement","Very Strong Agreement","Strong Agreement","Very Strong Disagreement","Strong Agreement","Very Strong Disagreement","Moderate Agreement"
"91","A2SXCJEZG2B7ML:3EFE17QCRDBMQJBV69QNO45IY7EHSQ","1",5,7,3,"50","<p style=""font-size:100px""><b>b</b></p><p style=""position: absolute; top: 30px; right: 30px; text-align:right; font-size:50px"""">N = 3</p>","b",0,73,742,1,"agree",16,18,19,14,19,"38","Male","instructions its very well almost very clear  and helpful. Awesome task I am very impressing. ","Slight Agreement","Strong Agreement","Strong Agreement","Very Strong Agreement","Moderate Disagreement","Strong Agreement","Strong Agreement","Very Strong Agreement","Moderate Agreement","Strong Agreement","Very Strong Agreement","Strong Disagreement","Very Strong Agreement","Strong Agreement","Very Strong Disagreement","Strong Agreement","Very Strong Disagreement","Moderate Agreement"
"92","A2SXCJEZG2B7ML:3EFE17QCRDBMQJBV69QNO45IY7EHSQ","1",5,8,3,"50","<p style=""font-size:100px""><b>B</b></p><p style=""position: absolute; top: 30px; right: 30px; text-align:right; font-size:50px"""">N = 3</p>","B",0,NA,NA,0,"agree",16,18,19,14,19,"38","Male","instructions its very well almost very clear  and helpful. Awesome task I am very impressing. ","Slight Agreement","Strong Agreement","Strong Agreement","Very Strong Agreement","Moderate Disagreement","Strong Agreement","Strong Agreement","Very Strong Agreement","Moderate Agreement","Strong Agreement","Very Strong Agreement","Strong Disagreement","Very Strong Agreement","Strong Agreement","Very Strong Disagreement","Strong Agreement","Very Strong Disagreement","Moderate Agreement"
"93","A2SXCJEZG2B7ML:3EFE17QCRDBMQJBV69QNO45IY7EHSQ","1",5,9,3,"50","<p style=""font-size:100px""><b>B</b></p><p style=""position: absolute; top: 30px; right: 30px; text-align:right; font-size:50px"""">N = 3</p>","B",0,NA,NA,0,"agree",16,18,19,14,19,"38","Male","instructions its very well almost very clear  and helpful. Awesome task I am very impressing. ","Slight Agreement","Strong Agreement","Strong Agreement","Very Strong Agreement","Moderate Disagreement","Strong Agreement","Strong Agreement","Very Strong Agreement","Moderate Agreement","Strong Agreement","Very Strong Agreement","Strong Disagreement","Very Strong Agreement","Strong Agreement","Very Strong Disagreement","Strong Agreement","Very Strong Disagreement","Moderate Agreement"
"94","A2SXCJEZG2B7ML:3EFE17QCRDBMQJBV69QNO45IY7EHSQ","1",5,10,3,"50","<p style=""font-size:100px""><b>b</b></p><p style=""position: absolute; top: 30px; right: 30px; text-align:right; font-size:50px"""">N = 3</p>","b",0,73,678,1,"agree",16,18,19,14,19,"38","Male","instructions its very well almost very clear  and helpful. Awesome task I am very impressing. ","Slight Agreement","Strong Agreement","Strong Agreement","Very Strong Agreement","Moderate Disagreement","Strong Agreement","Strong Agreement","Very Strong Agreement","Moderate Agreement","Strong Agreement","Very Strong Agreement","Strong Disagreement","Very Strong Agreement","Strong Agreement","Very Strong Disagreement","Strong Agreement","Very Strong Disagreement","Moderate Agreement"
"95","A2SXCJEZG2B7ML:3EFE17QCRDBMQJBV69QNO45IY7EHSQ","1",5,11,3,"50","<p style=""font-size:100px""><b>d</b></p><p style=""position: absolute; top: 30px; right: 30px; text-align:right; font-size:50px"""">N = 3</p>","d",0,69,834,0,"agree",16,18,19,14,19,"38","Male","instructions its very well almost very clear  and helpful. Awesome task I am very impressing. ","Slight Agreement","Strong Agreement","Strong Agreement","Very Strong Agreement","Moderate Disagreement","Strong Agreement","Strong Agreement","Very Strong Agreement","Moderate Agreement","Strong Agreement","Very Strong Agreement","Strong Disagreement","Very Strong Agreement","Strong Agreement","Very Strong Disagreement","Strong Agreement","Very Strong Disagreement","Moderate Agreement"
"96","A2SXCJEZG2B7ML:3EFE17QCRDBMQJBV69QNO45IY7EHSQ","1",5,12,3,"50","<p style=""font-size:100px""><b>d</b></p><p style=""position: absolute; top: 30px; right: 30px; text-align:right; font-size:50px"""">N = 3</p>","d",0,69,874,0,"agree",16,18,19,14,19,"38","Male","instructions its very well almost very clear  and helpful. Awesome task I am very impressing. ","Slight Agreement","Strong Agreement","Strong Agreement","Very Strong Agreement","Moderate Disagreement","Strong Agreement","Strong Agreement","Very Strong Agreement","Moderate Agreement","Strong Agreement","Very Strong Agreement","Strong Disagreement","Very Strong Agreement","Strong Agreement","Very Strong Disagreement","Strong Agreement","Very Strong Disagreement","Moderate Agreement"
"97","A2SXCJEZG2B7ML:3EFE17QCRDBMQJBV69QNO45IY7EHSQ","1",6,1,2,"50","<p style=""font-size:100px""><b>t</b></p><p style=""position: absolute; top: 30px; right: 30px; text-align:right; font-size:50px"""">N = 2</p>","t",0,73,695,1,"agree",11,19,17,19,15,"38","Male","instructions its very well almost very clear  and helpful. Awesome task I am very impressing. ","Slight Agreement","Strong Agreement","Strong Agreement","Very Strong Agreement","Moderate Disagreement","Strong Agreement","Strong Agreement","Very Strong Agreement","Moderate Agreement","Strong Agreement","Very Strong Agreement","Strong Disagreement","Very Strong Agreement","Strong Agreement","Very Strong Disagreement","Strong Agreement","Very Strong Disagreement","Moderate Agreement"
"98","A2SXCJEZG2B7ML:3EFE17QCRDBMQJBV69QNO45IY7EHSQ","1",6,2,2,"50","<p style=""font-size:100px""><b>b</b></p><p style=""position: absolute; top: 30px; right: 30px; text-align:right; font-size:50px"""">N = 2</p>","b",0,73,703,1,"agree",11,19,17,19,15,"38","Male","instructions its very well almost very clear  and helpful. Awesome task I am very impressing. ","Slight Agreement","Strong Agreement","Strong Agreement","Very Strong Agreement","Moderate Disagreement","Strong Agreement","Strong Agreement","Very Strong Agreement","Moderate Agreement","Strong Agreement","Very Strong Agreement","Strong Disagreement","Very Strong Agreement","Strong Agreement","Very Strong Disagreement","Strong Agreement","Very Strong Disagreement","Moderate Agreement"
"99","A2SXCJEZG2B7ML:3EFE17QCRDBMQJBV69QNO45IY7EHSQ","1",6,3,2,"50","<p style=""font-size:100px""><b>b</b></p><p style=""position: absolute; top: 30px; right: 30px; text-align:right; font-size:50px"""">N = 2</p>","b",0,69,757,0,"agree",11,19,17,19,15,"38","Male","instructions its very well almost very clear  and helpful. Awesome task I am very impressing. ","Slight Agreement","Strong Agreement","Strong Agreement","Very Strong Agreement","Moderate Disagreement","Strong Agreement","Strong Agreement","Very Strong Agreement","Moderate Agreement","Strong Agreement","Very Strong Agreement","Strong Disagreement","Very Strong Agreement","Strong Agreement","Very Strong Disagreement","Strong Agreement","Very Strong Disagreement","Moderate Agreement"
"100","A2SXCJEZG2B7ML:3EFE17QCRDBMQJBV69QNO45IY7EHSQ","1",6,4,2,"50","<p style=""font-size:100px""><b>b</b></p><p style=""position: absolute; top: 30px; right: 30px; text-align:right; font-size:50px"""">N = 2</p>","b",0,69,958,0,"agree",11,19,17,19,15,"38","Male","instructions its very well almost very clear  and helpful. Awesome task I am very impressing. ","Slight Agreement","Strong Agreement","Strong Agreement","Very Strong Agreement","Moderate Disagreement","Strong Agreement","Strong Agreement","Very Strong Agreement","Moderate Agreement","Strong Agreement","Very Strong Agreement","Strong Disagreement","Very Strong Agreement","Strong Agreement","Very Strong Disagreement","Strong Agreement","Very Strong Disagreement","Moderate Agreement"
"101","A2SXCJEZG2B7ML:3EFE17QCRDBMQJBV69QNO45IY7EHSQ","1",6,5,2,"50","<p style=""font-size:100px""><b>b</b></p><p style=""position: absolute; top: 30px; right: 30px; text-align:right; font-size:50px"""">N = 2</p>","b",0,NA,NA,0,"agree",11,19,17,19,15,"38","Male","instructions its very well almost very clear  and helpful. Awesome task I am very impressing. ","Slight Agreement","Strong Agreement","Strong Agreement","Very Strong Agreement","Moderate Disagreement","Strong Agreement","Strong Agreement","Very Strong Agreement","Moderate Agreement","Strong Agreement","Very Strong Agreement","Strong Disagreement","Very Strong Agreement","Strong Agreement","Very Strong Disagreement","Strong Agreement","Very Strong Disagreement","Moderate Agreement"
"102","A2SXCJEZG2B7ML:3EFE17QCRDBMQJBV69QNO45IY7EHSQ","1",6,6,2,"50","<p style=""font-size:100px""><b>G</b></p><p style=""position: absolute; top: 30px; right: 30px; text-align:right; font-size:50px"""">N = 2</p>","G",0,NA,NA,0,"agree",11,19,17,19,15,"38","Male","instructions its very well almost very clear  and helpful. Awesome task I am very impressing. ","Slight Agreement","Strong Agreement","Strong Agreement","Very Strong Agreement","Moderate Disagreement","Strong Agreement","Strong Agreement","Very Strong Agreement","Moderate Agreement","Strong Agreement","Very Strong Agreement","Strong Disagreement","Very Strong Agreement","Strong Agreement","Very Strong Disagreement","Strong Agreement","Very Strong Disagreement","Moderate Agreement"
"103","A2SXCJEZG2B7ML:3EFE17QCRDBMQJBV69QNO45IY7EHSQ","1",6,7,2,"50","<p style=""font-size:100px""><b>D</b></p><p style=""position: absolute; top: 30px; right: 30px; text-align:right; font-size:50px"""">N = 2</p>","D",0,NA,NA,0,"agree",11,19,17,19,15,"38","Male","instructions its very well almost very clear  and helpful. Awesome task I am very impressing. ","Slight Agreement","Strong Agreement","Strong Agreement","Very Strong Agreement","Moderate Disagreement","Strong Agreement","Strong Agreement","Very Strong Agreement","Moderate Agreement","Strong Agreement","Very Strong Agreement","Strong Disagreement","Very Strong Agreement","Strong Agreement","Very Strong Disagreement","Strong Agreement","Very Strong Disagreement","Moderate Agreement"
"104","A2SXCJEZG2B7ML:3EFE17QCRDBMQJBV69QNO45IY7EHSQ","1",6,8,2,"50","<p style=""font-size:100px""><b>b</b></p><p style=""position: absolute; top: 30px; right: 30px; text-align:right; font-size:50px"""">N = 2</p>","b",0,69,660,0,"agree",11,19,17,19,15,"38","Male","instructions its very well almost very clear  and helpful. Awesome task I am very impressing. ","Slight Agreement","Strong Agreement","Strong Agreement","Very Strong Agreement","Moderate Disagreement","Strong Agreement","Strong Agreement","Very Strong Agreement","Moderate Agreement","Strong Agreement","Very Strong Agreement","Strong Disagreement","Very Strong Agreement","Strong Agreement","Very Strong Disagreement","Strong Agreement","Very Strong Disagreement","Moderate Agreement"
"105","A2SXCJEZG2B7ML:3EFE17QCRDBMQJBV69QNO45IY7EHSQ","1",6,9,2,"50","<p style=""font-size:100px""><b>D</b></p><p style=""position: absolute; top: 30px; right: 30px; text-align:right; font-size:50px"""">N = 2</p>","D",0,69,612,0,"agree",11,19,17,19,15,"38","Male","instructions its very well almost very clear  and helpful. Awesome task I am very impressing. ","Slight Agreement","Strong Agreement","Strong Agreement","Very Strong Agreement","Moderate Disagreement","Strong Agreement","Strong Agreement","Very Strong Agreement","Moderate Agreement","Strong Agreement","Very Strong Agreement","Strong Disagreement","Very Strong Agreement","Strong Agreement","Very Strong Disagreement","Strong Agreement","Very Strong Disagreement","Moderate Agreement"
"106","A2SXCJEZG2B7ML:3EFE17QCRDBMQJBV69QNO45IY7EHSQ","1",6,10,2,"50","<p style=""font-size:100px""><b>b</b></p><p style=""position: absolute; top: 30px; right: 30px; text-align:right; font-size:50px"""">N = 2</p>","b",0,69,611,0,"agree",11,19,17,19,15,"38","Male","instructions its very well almost very clear  and helpful. Awesome task I am very impressing. ","Slight Agreement","Strong Agreement","Strong Agreement","Very Strong Agreement","Moderate Disagreement","Strong Agreement","Strong Agreement","Very Strong Agreement","Moderate Agreement","Strong Agreement","Very Strong Agreement","Strong Disagreement","Very Strong Agreement","Strong Agreement","Very Strong Disagreement","Strong Agreement","Very Strong Disagreement","Moderate Agreement"
"107","A2SXCJEZG2B7ML:3EFE17QCRDBMQJBV69QNO45IY7EHSQ","1",6,11,2,"50","<p style=""font-size:100px""><b>V</b></p><p style=""position: absolute; top: 30px; right: 30px; text-align:right; font-size:50px"""">N = 2</p>","V",0,73,578,1,"agree",11,19,17,19,15,"38","Male","instructions its very well almost very clear  and helpful. Awesome task I am very impressing. ","Slight Agreement","Strong Agreement","Strong Agreement","Very Strong Agreement","Moderate Disagreement","Strong Agreement","Strong Agreement","Very Strong Agreement","Moderate Agreement","Strong Agreement","Very Strong Agreement","Strong Disagreement","Very Strong Agreement","Strong Agreement","Very Strong Disagreement","Strong Agreement","Very Strong Disagreement","Moderate Agreement"
"108","A2SXCJEZG2B7ML:3EFE17QCRDBMQJBV69QNO45IY7EHSQ","1",6,12,2,"50","<p style=""font-size:100px""><b>g</b></p><p style=""position: absolute; top: 30px; right: 30px; text-align:right; font-size:50px"""">N = 2</p>","g",0,73,608,1,"agree",11,19,17,19,15,"38","Male","instructions its very well almost very clear  and helpful. Awesome task I am very impressing. ","Slight Agreement","Strong Agreement","Strong Agreement","Very Strong Agreement","Moderate Disagreement","Strong Agreement","Strong Agreement","Very Strong Agreement","Moderate Agreement","Strong Agreement","Very Strong Agreement","Strong Disagreement","Very Strong Agreement","Strong Agreement","Very Strong Disagreement","Strong Agreement","Very Strong Disagreement","Moderate Agreement"
"109","A2SXCJEZG2B7ML:3EFE17QCRDBMQJBV69QNO45IY7EHSQ","2",7,1,1,"50","<p style=""font-size:100px""><b>g</b></p><p style=""position: absolute; top: 30px; right: 30px; text-align:right; font-size:50px"""">N = 1</p>","g",0,73,726,1,"agree",18,15,14,19,15,"38","Male","instructions its very well almost very clear  and helpful. Awesome task I am very impressing. ","Slight Agreement","Strong Agreement","Strong Agreement","Very Strong Agreement","Moderate Disagreement","Strong Agreement","Strong Agreement","Very Strong Agreement","Moderate Agreement","Strong Agreement","Very Strong Agreement","Strong Disagreement","Very Strong Agreement","Strong Agreement","Very Strong Disagreement","Strong Agreement","Very Strong Disagreement","Moderate Agreement"
"110","A2SXCJEZG2B7ML:3EFE17QCRDBMQJBV69QNO45IY7EHSQ","2",7,2,1,"50","<p style=""font-size:100px""><b>g</b></p><p style=""position: absolute; top: 30px; right: 30px; text-align:right; font-size:50px"""">N = 1</p>","g",0,73,647,1,"agree",18,15,14,19,15,"38","Male","instructions its very well almost very clear  and helpful. Awesome task I am very impressing. ","Slight Agreement","Strong Agreement","Strong Agreement","Very Strong Agreement","Moderate Disagreement","Strong Agreement","Strong Agreement","Very Strong Agreement","Moderate Agreement","Strong Agreement","Very Strong Agreement","Strong Disagreement","Very Strong Agreement","Strong Agreement","Very Strong Disagreement","Strong Agreement","Very Strong Disagreement","Moderate Agreement"
"111","A2SXCJEZG2B7ML:3EFE17QCRDBMQJBV69QNO45IY7EHSQ","2",7,3,1,"50","<p style=""font-size:100px""><b>D</b></p><p style=""position: absolute; top: 30px; right: 30px; text-align:right; font-size:50px"""">N = 1</p>","D",0,73,798,1,"agree",18,15,14,19,15,"38","Male","instructions its very well almost very clear  and helpful. Awesome task I am very impressing. ","Slight Agreement","Strong Agreement","Strong Agreement","Very Strong Agreement","Moderate Disagreement","Strong Agreement","Strong Agreement","Very Strong Agreement","Moderate Agreement","Strong Agreement","Very Strong Agreement","Strong Disagreement","Very Strong Agreement","Strong Agreement","Very Strong Disagreement","Strong Agreement","Very Strong Disagreement","Moderate Agreement"
"112","A2SXCJEZG2B7ML:3EFE17QCRDBMQJBV69QNO45IY7EHSQ","2",7,4,1,"50","<p style=""font-size:100px""><b>D</b></p><p style=""position: absolute; top: 30px; right: 30px; text-align:right; font-size:50px"""">N = 1</p>","D",0,73,757,1,"agree",18,15,14,19,15,"38","Male","instructions its very well almost very clear  and helpful. Awesome task I am very impressing. ","Slight Agreement","Strong Agreement","Strong Agreement","Very Strong Agreement","Moderate Disagreement","Strong Agreement","Strong Agreement","Very Strong Agreement","Moderate Agreement","Strong Agreement","Very Strong Agreement","Strong Disagreement","Very Strong Agreement","Strong Agreement","Very Strong Disagreement","Strong Agreement","Very Strong Disagreement","Moderate Agreement"
"113","A2SXCJEZG2B7ML:3EFE17QCRDBMQJBV69QNO45IY7EHSQ","2",7,5,1,"50","<p style=""font-size:100px""><b>V</b></p><p style=""position: absolute; top: 30px; right: 30px; text-align:right; font-size:50px"""">N = 1</p>","V",0,73,661,1,"agree",18,15,14,19,15,"38","Male","instructions its very well almost very clear  and helpful. Awesome task I am very impressing. ","Slight Agreement","Strong Agreement","Strong Agreement","Very Strong Agreement","Moderate Disagreement","Strong Agreement","Strong Agreement","Very Strong Agreement","Moderate Agreement","Strong Agreement","Very Strong Agreement","Strong Disagreement","Very Strong Agreement","Strong Agreement","Very Strong Disagreement","Strong Agreement","Very Strong Disagreement","Moderate Agreement"
"114","A2SXCJEZG2B7ML:3EFE17QCRDBMQJBV69QNO45IY7EHSQ","2",7,6,1,"50","<p style=""font-size:100px""><b>p</b></p><p style=""position: absolute; top: 30px; right: 30px; text-align:right; font-size:50px"""">N = 1</p>","p",0,69,638,0,"agree",18,15,14,19,15,"38","Male","instructions its very well almost very clear  and helpful. Awesome task I am very impressing. ","Slight Agreement","Strong Agreement","Strong Agreement","Very Strong Agreement","Moderate Disagreement","Strong Agreement","Strong Agreement","Very Strong Agreement","Moderate Agreement","Strong Agreement","Very Strong Agreement","Strong Disagreement","Very Strong Agreement","Strong Agreement","Very Strong Disagreement","Strong Agreement","Very Strong Disagreement","Moderate Agreement"
"115","A2SXCJEZG2B7ML:3EFE17QCRDBMQJBV69QNO45IY7EHSQ","2",7,7,1,"50","<p style=""font-size:100px""><b>g</b></p><p style=""position: absolute; top: 30px; right: 30px; text-align:right; font-size:50px"""">N = 1</p>","g",0,73,785,1,"agree",18,15,14,19,15,"38","Male","instructions its very well almost very clear  and helpful. Awesome task I am very impressing. ","Slight Agreement","Strong Agreement","Strong Agreement","Very Strong Agreement","Moderate Disagreement","Strong Agreement","Strong Agreement","Very Strong Agreement","Moderate Agreement","Strong Agreement","Very Strong Agreement","Strong Disagreement","Very Strong Agreement","Strong Agreement","Very Strong Disagreement","Strong Agreement","Very Strong Disagreement","Moderate Agreement"
"116","A2SXCJEZG2B7ML:3EFE17QCRDBMQJBV69QNO45IY7EHSQ","2",7,8,1,"50","<p style=""font-size:100px""><b>b</b></p><p style=""position: absolute; top: 30px; right: 30px; text-align:right; font-size:50px"""">N = 1</p>","b",0,69,783,0,"agree",18,15,14,19,15,"38","Male","instructions its very well almost very clear  and helpful. Awesome task I am very impressing. ","Slight Agreement","Strong Agreement","Strong Agreement","Very Strong Agreement","Moderate Disagreement","Strong Agreement","Strong Agreement","Very Strong Agreement","Moderate Agreement","Strong Agreement","Very Strong Agreement","Strong Disagreement","Very Strong Agreement","Strong Agreement","Very Strong Disagreement","Strong Agreement","Very Strong Disagreement","Moderate Agreement"
"117","A2SXCJEZG2B7ML:3EFE17QCRDBMQJBV69QNO45IY7EHSQ","2",7,9,1,"50","<p style=""font-size:100px""><b>b</b></p><p style=""position: absolute; top: 30px; right: 30px; text-align:right; font-size:50px"""">N = 1</p>","b",0,73,606,1,"agree",18,15,14,19,15,"38","Male","instructions its very well almost very clear  and helpful. Awesome task I am very impressing. ","Slight Agreement","Strong Agreement","Strong Agreement","Very Strong Agreement","Moderate Disagreement","Strong Agreement","Strong Agreement","Very Strong Agreement","Moderate Agreement","Strong Agreement","Very Strong Agreement","Strong Disagreement","Very Strong Agreement","Strong Agreement","Very Strong Disagreement","Strong Agreement","Very Strong Disagreement","Moderate Agreement"
"118","A2SXCJEZG2B7ML:3EFE17QCRDBMQJBV69QNO45IY7EHSQ","2",7,10,1,"50","<p style=""font-size:100px""><b>V</b></p><p style=""position: absolute; top: 30px; right: 30px; text-align:right; font-size:50px"""">N = 1</p>","V",0,69,718,0,"agree",18,15,14,19,15,"38","Male","instructions its very well almost very clear  and helpful. Awesome task I am very impressing. ","Slight Agreement","Strong Agreement","Strong Agreement","Very Strong Agreement","Moderate Disagreement","Strong Agreement","Strong Agreement","Very Strong Agreement","Moderate Agreement","Strong Agreement","Very Strong Agreement","Strong Disagreement","Very Strong Agreement","Strong Agreement","Very Strong Disagreement","Strong Agreement","Very Strong Disagreement","Moderate Agreement"
"119","A2SXCJEZG2B7ML:3EFE17QCRDBMQJBV69QNO45IY7EHSQ","2",7,11,1,"50","<p style=""font-size:100px""><b>V</b></p><p style=""position: absolute; top: 30px; right: 30px; text-align:right; font-size:50px"""">N = 1</p>","V",0,69,867,0,"agree",18,15,14,19,15,"38","Male","instructions its very well almost very clear  and helpful. Awesome task I am very impressing. ","Slight Agreement","Strong Agreement","Strong Agreement","Very Strong Agreement","Moderate Disagreement","Strong Agreement","Strong Agreement","Very Strong Agreement","Moderate Agreement","Strong Agreement","Very Strong Agreement","Strong Disagreement","Very Strong Agreement","Strong Agreement","Very Strong Disagreement","Strong Agreement","Very Strong Disagreement","Moderate Agreement"
"120","A2SXCJEZG2B7ML:3EFE17QCRDBMQJBV69QNO45IY7EHSQ","2",7,12,1,"50","<p style=""font-size:100px""><b>D</b></p><p style=""position: absolute; top: 30px; right: 30px; text-align:right; font-size:50px"""">N = 1</p>","D",0,73,798,1,"agree",18,15,14,19,15,"38","Male","instructions its very well almost very clear  and helpful. Awesome task I am very impressing. ","Slight Agreement","Strong Agreement","Strong Agreement","Very Strong Agreement","Moderate Disagreement","Strong Agreement","Strong Agreement","Very Strong Agreement","Moderate Agreement","Strong Agreement","Very Strong Agreement","Strong Disagreement","Very Strong Agreement","Strong Agreement","Very Strong Disagreement","Strong Agreement","Very Strong Disagreement","Moderate Agreement"
"121","A2SXCJEZG2B7ML:3EFE17QCRDBMQJBV69QNO45IY7EHSQ","2",8,1,2,"5","<p style=""font-size:100px""><b>P</b></p><p style=""position: absolute; top: 30px; right: 30px; text-align:right; font-size:50px"""">N = 2</p>","P",0,73,633,1,"agree",19,16,16,18,14,"38","Male","instructions its very well almost very clear  and helpful. Awesome task I am very impressing. ","Slight Agreement","Strong Agreement","Strong Agreement","Very Strong Agreement","Moderate Disagreement","Strong Agreement","Strong Agreement","Very Strong Agreement","Moderate Agreement","Strong Agreement","Very Strong Agreement","Strong Disagreement","Very Strong Agreement","Strong Agreement","Very Strong Disagreement","Strong Agreement","Very Strong Disagreement","Moderate Agreement"
"122","A2SXCJEZG2B7ML:3EFE17QCRDBMQJBV69QNO45IY7EHSQ","2",8,2,2,"5","<p style=""font-size:100px""><b>G</b></p><p style=""position: absolute; top: 30px; right: 30px; text-align:right; font-size:50px"""">N = 2</p>","G",0,73,687,1,"agree",19,16,16,18,14,"38","Male","instructions its very well almost very clear  and helpful. Awesome task I am very impressing. ","Slight Agreement","Strong Agreement","Strong Agreement","Very Strong Agreement","Moderate Disagreement","Strong Agreement","Strong Agreement","Very Strong Agreement","Moderate Agreement","Strong Agreement","Very Strong Agreement","Strong Disagreement","Very Strong Agreement","Strong Agreement","Very Strong Disagreement","Strong Agreement","Very Strong Disagreement","Moderate Agreement"
"123","A2SXCJEZG2B7ML:3EFE17QCRDBMQJBV69QNO45IY7EHSQ","2",8,3,2,"5","<p style=""font-size:100px""><b>T</b></p><p style=""position: absolute; top: 30px; right: 30px; text-align:right; font-size:50px"""">N = 2</p>","T",0,73,690,1,"agree",19,16,16,18,14,"38","Male","instructions its very well almost very clear  and helpful. Awesome task I am very impressing. ","Slight Agreement","Strong Agreement","Strong Agreement","Very Strong Agreement","Moderate Disagreement","Strong Agreement","Strong Agreement","Very Strong Agreement","Moderate Agreement","Strong Agreement","Very Strong Agreement","Strong Disagreement","Very Strong Agreement","Strong Agreement","Very Strong Disagreement","Strong Agreement","Very Strong Disagreement","Moderate Agreement"
"124","A2SXCJEZG2B7ML:3EFE17QCRDBMQJBV69QNO45IY7EHSQ","2",8,4,2,"5","<p style=""font-size:100px""><b>B</b></p><p style=""position: absolute; top: 30px; right: 30px; text-align:right; font-size:50px"""">N = 2</p>","B",0,73,751,1,"agree",19,16,16,18,14,"38","Male","instructions its very well almost very clear  and helpful. Awesome task I am very impressing. ","Slight Agreement","Strong Agreement","Strong Agreement","Very Strong Agreement","Moderate Disagreement","Strong Agreement","Strong Agreement","Very Strong Agreement","Moderate Agreement","Strong Agreement","Very Strong Agreement","Strong Disagreement","Very Strong Agreement","Strong Agreement","Very Strong Disagreement","Strong Agreement","Very Strong Disagreement","Moderate Agreement"
"125","A2SXCJEZG2B7ML:3EFE17QCRDBMQJBV69QNO45IY7EHSQ","2",8,5,2,"5","<p style=""font-size:100px""><b>T</b></p><p style=""position: absolute; top: 30px; right: 30px; text-align:right; font-size:50px"""">N = 2</p>","T",0,73,837,1,"agree",19,16,16,18,14,"38","Male","instructions its very well almost very clear  and helpful. Awesome task I am very impressing. ","Slight Agreement","Strong Agreement","Strong Agreement","Very Strong Agreement","Moderate Disagreement","Strong Agreement","Strong Agreement","Very Strong Agreement","Moderate Agreement","Strong Agreement","Very Strong Agreement","Strong Disagreement","Very Strong Agreement","Strong Agreement","Very Strong Disagreement","Strong Agreement","Very Strong Disagreement","Moderate Agreement"
"126","A2SXCJEZG2B7ML:3EFE17QCRDBMQJBV69QNO45IY7EHSQ","2",8,6,2,"5","<p style=""font-size:100px""><b>d</b></p><p style=""position: absolute; top: 30px; right: 30px; text-align:right; font-size:50px"""">N = 2</p>","d",0,73,896,1,"agree",19,16,16,18,14,"38","Male","instructions its very well almost very clear  and helpful. Awesome task I am very impressing. ","Slight Agreement","Strong Agreement","Strong Agreement","Very Strong Agreement","Moderate Disagreement","Strong Agreement","Strong Agreement","Very Strong Agreement","Moderate Agreement","Strong Agreement","Very Strong Agreement","Strong Disagreement","Very Strong Agreement","Strong Agreement","Very Strong Disagreement","Strong Agreement","Very Strong Disagreement","Moderate Agreement"
"127","A2SXCJEZG2B7ML:3EFE17QCRDBMQJBV69QNO45IY7EHSQ","2",8,7,2,"5","<p style=""font-size:100px""><b>g</b></p><p style=""position: absolute; top: 30px; right: 30px; text-align:right; font-size:50px"""">N = 2</p>","g",0,69,679,0,"agree",19,16,16,18,14,"38","Male","instructions its very well almost very clear  and helpful. Awesome task I am very impressing. ","Slight Agreement","Strong Agreement","Strong Agreement","Very Strong Agreement","Moderate Disagreement","Strong Agreement","Strong Agreement","Very Strong Agreement","Moderate Agreement","Strong Agreement","Very Strong Agreement","Strong Disagreement","Very Strong Agreement","Strong Agreement","Very Strong Disagreement","Strong Agreement","Very Strong Disagreement","Moderate Agreement"
"128","A2SXCJEZG2B7ML:3EFE17QCRDBMQJBV69QNO45IY7EHSQ","2",8,8,2,"5","<p style=""font-size:100px""><b>T</b></p><p style=""position: absolute; top: 30px; right: 30px; text-align:right; font-size:50px"""">N = 2</p>","T",0,69,843,0,"agree",19,16,16,18,14,"38","Male","instructions its very well almost very clear  and helpful. Awesome task I am very impressing. ","Slight Agreement","Strong Agreement","Strong Agreement","Very Strong Agreement","Moderate Disagreement","Strong Agreement","Strong Agreement","Very Strong Agreement","Moderate Agreement","Strong Agreement","Very Strong Agreement","Strong Disagreement","Very Strong Agreement","Strong Agreement","Very Strong Disagreement","Strong Agreement","Very Strong Disagreement","Moderate Agreement"
"129","A2SXCJEZG2B7ML:3EFE17QCRDBMQJBV69QNO45IY7EHSQ","2",8,9,2,"5","<p style=""font-size:100px""><b>g</b></p><p style=""position: absolute; top: 30px; right: 30px; text-align:right; font-size:50px"""">N = 2</p>","g",0,69,615,0,"agree",19,16,16,18,14,"38","Male","instructions its very well almost very clear  and helpful. Awesome task I am very impressing. ","Slight Agreement","Strong Agreement","Strong Agreement","Very Strong Agreement","Moderate Disagreement","Strong Agreement","Strong Agreement","Very Strong Agreement","Moderate Agreement","Strong Agreement","Very Strong Agreement","Strong Disagreement","Very Strong Agreement","Strong Agreement","Very Strong Disagreement","Strong Agreement","Very Strong Disagreement","Moderate Agreement"
"130","A2SXCJEZG2B7ML:3EFE17QCRDBMQJBV69QNO45IY7EHSQ","2",8,10,2,"5","<p style=""font-size:100px""><b>d</b></p><p style=""position: absolute; top: 30px; right: 30px; text-align:right; font-size:50px"""">N = 2</p>","d",0,69,698,0,"agree",19,16,16,18,14,"38","Male","instructions its very well almost very clear  and helpful. Awesome task I am very impressing. ","Slight Agreement","Strong Agreement","Strong Agreement","Very Strong Agreement","Moderate Disagreement","Strong Agreement","Strong Agreement","Very Strong Agreement","Moderate Agreement","Strong Agreement","Very Strong Agreement","Strong Disagreement","Very Strong Agreement","Strong Agreement","Very Strong Disagreement","Strong Agreement","Very Strong Disagreement","Moderate Agreement"
"131","A2SXCJEZG2B7ML:3EFE17QCRDBMQJBV69QNO45IY7EHSQ","2",8,11,2,"5","<p style=""font-size:100px""><b>g</b></p><p style=""position: absolute; top: 30px; right: 30px; text-align:right; font-size:50px"""">N = 2</p>","g",0,73,695,1,"agree",19,16,16,18,14,"38","Male","instructions its very well almost very clear  and helpful. Awesome task I am very impressing. ","Slight Agreement","Strong Agreement","Strong Agreement","Very Strong Agreement","Moderate Disagreement","Strong Agreement","Strong Agreement","Very Strong Agreement","Moderate Agreement","Strong Agreement","Very Strong Agreement","Strong Disagreement","Very Strong Agreement","Strong Agreement","Very Strong Disagreement","Strong Agreement","Very Strong Disagreement","Moderate Agreement"
"132","A2SXCJEZG2B7ML:3EFE17QCRDBMQJBV69QNO45IY7EHSQ","2",8,12,2,"5","<p style=""font-size:100px""><b>d</b></p><p style=""position: absolute; top: 30px; right: 30px; text-align:right; font-size:50px"""">N = 2</p>","d",0,69,782,0,"agree",19,16,16,18,14,"38","Male","instructions its very well almost very clear  and helpful. Awesome task I am very impressing. ","Slight Agreement","Strong Agreement","Strong Agreement","Very Strong Agreement","Moderate Disagreement","Strong Agreement","Strong Agreement","Very Strong Agreement","Moderate Agreement","Strong Agreement","Very Strong Agreement","Strong Disagreement","Very Strong Agreement","Strong Agreement","Very Strong Disagreement","Strong Agreement","Very Strong Disagreement","Moderate Agreement"
