"","subject","run","block","trial","N","reward","stimulus","cue","isTarget","key_press","rt","acc","debrief","performance","frustration","demand","temporal","effort","age","gender","comments","nfc1","nfc2","nfc3","nfc4","nfc5","nfc6","nfc7","nfc8","nfc9","nfc10","nfc11","nfc12","nfc13","nfc14","nfc15","nfc16","nfc17","nfc18"
"1","A29RCIFHRAZ797:3TEM0PF1Q635DUMHBBODNDK1BG80D5","practice",1,1,1,"NA","<p style=""font-size:100px""><b>p</b></p><p style=""position: absolute; top: 30px; right: 30px; text-align:right; font-size:50px"""">N = 1</p>","p",0,69,998.899999856949,0,"agree",13,15,13,13,14,"25","male","none","Strong Disagreement","Moderate Agreement","Neither Agreement nor Disagreement","Slight Agreement","Slight Agreement","Moderate Agreement","Moderate Agreement","Neither Agreement nor Disagreement","Slight Agreement","Moderate Agreement","Moderate Agreement","Slight Agreement","Slight Agreement","Moderate Agreement","Slight Disagreement","Neither Agreement nor Disagreement","Slight Disagreement","Neither Agreement nor Disagreement"
"2","A29RCIFHRAZ797:3TEM0PF1Q635DUMHBBODNDK1BG80D5","practice",1,2,1,"NA","<p style=""font-size:100px""><b>t</b></p><p style=""position: absolute; top: 30px; right: 30px; text-align:right; font-size:50px"""">N = 1</p>","t",0,73,631,1,"agree",13,15,13,13,14,"25","male","none","Strong Disagreement","Moderate Agreement","Neither Agreement nor Disagreement","Slight Agreement","Slight Agreement","Moderate Agreement","Moderate Agreement","Neither Agreement nor Disagreement","Slight Agreement","Moderate Agreement","Moderate Agreement","Slight Agreement","Slight Agreement","Moderate Agreement","Slight Disagreement","Neither Agreement nor Disagreement","Slight Disagreement","Neither Agreement nor Disagreement"
"3","A29RCIFHRAZ797:3TEM0PF1Q635DUMHBBODNDK1BG80D5","practice",1,3,1,"NA","<p style=""font-size:100px""><b>d</b></p><p style=""position: absolute; top: 30px; right: 30px; text-align:right; font-size:50px"""">N = 1</p>","d",0,69,105.100000143051,0,"agree",13,15,13,13,14,"25","male","none","Strong Disagreement","Moderate Agreement","Neither Agreement nor Disagreement","Slight Agreement","Slight Agreement","Moderate Agreement","Moderate Agreement","Neither Agreement nor Disagreement","Slight Agreement","Moderate Agreement","Moderate Agreement","Slight Agreement","Slight Agreement","Moderate Agreement","Slight Disagreement","Neither Agreement nor Disagreement","Slight Disagreement","Neither Agreement nor Disagreement"
"4","A29RCIFHRAZ797:3TEM0PF1Q635DUMHBBODNDK1BG80D5","practice",1,4,1,"NA","<p style=""font-size:100px""><b>V</b></p><p style=""position: absolute; top: 30px; right: 30px; text-align:right; font-size:50px"""">N = 1</p>","V",0,73,118.400000095367,1,"agree",13,15,13,13,14,"25","male","none","Strong Disagreement","Moderate Agreement","Neither Agreement nor Disagreement","Slight Agreement","Slight Agreement","Moderate Agreement","Moderate Agreement","Neither Agreement nor Disagreement","Slight Agreement","Moderate Agreement","Moderate Agreement","Slight Agreement","Slight Agreement","Moderate Agreement","Slight Disagreement","Neither Agreement nor Disagreement","Slight Disagreement","Neither Agreement nor Disagreement"
"5","A29RCIFHRAZ797:3TEM0PF1Q635DUMHBBODNDK1BG80D5","practice",1,5,1,"NA","<p style=""font-size:100px""><b>p</b></p><p style=""position: absolute; top: 30px; right: 30px; text-align:right; font-size:50px"""">N = 1</p>","p",0,69,51.8000001907349,0,"agree",13,15,13,13,14,"25","male","none","Strong Disagreement","Moderate Agreement","Neither Agreement nor Disagreement","Slight Agreement","Slight Agreement","Moderate Agreement","Moderate Agreement","Neither Agreement nor Disagreement","Slight Agreement","Moderate Agreement","Moderate Agreement","Slight Agreement","Slight Agreement","Moderate Agreement","Slight Disagreement","Neither Agreement nor Disagreement","Slight Disagreement","Neither Agreement nor Disagreement"
"6","A29RCIFHRAZ797:3TEM0PF1Q635DUMHBBODNDK1BG80D5","practice",1,6,1,"NA","<p style=""font-size:100px""><b>D</b></p><p style=""position: absolute; top: 30px; right: 30px; text-align:right; font-size:50px"""">N = 1</p>","D",0,73,37.5999999046326,1,"agree",13,15,13,13,14,"25","male","none","Strong Disagreement","Moderate Agreement","Neither Agreement nor Disagreement","Slight Agreement","Slight Agreement","Moderate Agreement","Moderate Agreement","Neither Agreement nor Disagreement","Slight Agreement","Moderate Agreement","Moderate Agreement","Slight Agreement","Slight Agreement","Moderate Agreement","Slight Disagreement","Neither Agreement nor Disagreement","Slight Disagreement","Neither Agreement nor Disagreement"
"7","A29RCIFHRAZ797:3TEM0PF1Q635DUMHBBODNDK1BG80D5","practice",1,7,1,"NA","<p style=""font-size:100px""><b>D</b></p><p style=""position: absolute; top: 30px; right: 30px; text-align:right; font-size:50px"""">N = 1</p>","D",1,73,186.699999809265,0,"agree",13,15,13,13,14,"25","male","none","Strong Disagreement","Moderate Agreement","Neither Agreement nor Disagreement","Slight Agreement","Slight Agreement","Moderate Agreement","Moderate Agreement","Neither Agreement nor Disagreement","Slight Agreement","Moderate Agreement","Moderate Agreement","Slight Agreement","Slight Agreement","Moderate Agreement","Slight Disagreement","Neither Agreement nor Disagreement","Slight Disagreement","Neither Agreement nor Disagreement"
"8","A29RCIFHRAZ797:3TEM0PF1Q635DUMHBBODNDK1BG80D5","practice",1,8,1,"NA","<p style=""font-size:100px""><b>D</b></p><p style=""position: absolute; top: 30px; right: 30px; text-align:right; font-size:50px"""">N = 1</p>","D",1,73,73.6999998092651,0,"agree",13,15,13,13,14,"25","male","none","Strong Disagreement","Moderate Agreement","Neither Agreement nor Disagreement","Slight Agreement","Slight Agreement","Moderate Agreement","Moderate Agreement","Neither Agreement nor Disagreement","Slight Agreement","Moderate Agreement","Moderate Agreement","Slight Agreement","Slight Agreement","Moderate Agreement","Slight Disagreement","Neither Agreement nor Disagreement","Slight Disagreement","Neither Agreement nor Disagreement"
"9","A29RCIFHRAZ797:3TEM0PF1Q635DUMHBBODNDK1BG80D5","practice",1,9,1,"NA","<p style=""font-size:100px""><b>D</b></p><p style=""position: absolute; top: 30px; right: 30px; text-align:right; font-size:50px"""">N = 1</p>","D",1,73,104.200000047684,0,"agree",13,15,13,13,14,"25","male","none","Strong Disagreement","Moderate Agreement","Neither Agreement nor Disagreement","Slight Agreement","Slight Agreement","Moderate Agreement","Moderate Agreement","Neither Agreement nor Disagreement","Slight Agreement","Moderate Agreement","Moderate Agreement","Slight Agreement","Slight Agreement","Moderate Agreement","Slight Disagreement","Neither Agreement nor Disagreement","Slight Disagreement","Neither Agreement nor Disagreement"
"10","A29RCIFHRAZ797:3TEM0PF1Q635DUMHBBODNDK1BG80D5","practice",1,10,1,"NA","<p style=""font-size:100px""><b>b</b></p><p style=""position: absolute; top: 30px; right: 30px; text-align:right; font-size:50px"""">N = 1</p>","b",0,73,147.5,1,"agree",13,15,13,13,14,"25","male","none","Strong Disagreement","Moderate Agreement","Neither Agreement nor Disagreement","Slight Agreement","Slight Agreement","Moderate Agreement","Moderate Agreement","Neither Agreement nor Disagreement","Slight Agreement","Moderate Agreement","Moderate Agreement","Slight Agreement","Slight Agreement","Moderate Agreement","Slight Disagreement","Neither Agreement nor Disagreement","Slight Disagreement","Neither Agreement nor Disagreement"
"11","A29RCIFHRAZ797:3TEM0PF1Q635DUMHBBODNDK1BG80D5","practice",1,11,1,"NA","<p style=""font-size:100px""><b>T</b></p><p style=""position: absolute; top: 30px; right: 30px; text-align:right; font-size:50px"""">N = 1</p>","T",0,69,49.9000000953674,0,"agree",13,15,13,13,14,"25","male","none","Strong Disagreement","Moderate Agreement","Neither Agreement nor Disagreement","Slight Agreement","Slight Agreement","Moderate Agreement","Moderate Agreement","Neither Agreement nor Disagreement","Slight Agreement","Moderate Agreement","Moderate Agreement","Slight Agreement","Slight Agreement","Moderate Agreement","Slight Disagreement","Neither Agreement nor Disagreement","Slight Disagreement","Neither Agreement nor Disagreement"
"12","A29RCIFHRAZ797:3TEM0PF1Q635DUMHBBODNDK1BG80D5","practice",1,12,1,"NA","<p style=""font-size:100px""><b>T</b></p><p style=""position: absolute; top: 30px; right: 30px; text-align:right; font-size:50px"""">N = 1</p>","T",1,69,133,1,"agree",13,15,13,13,14,"25","male","none","Strong Disagreement","Moderate Agreement","Neither Agreement nor Disagreement","Slight Agreement","Slight Agreement","Moderate Agreement","Moderate Agreement","Neither Agreement nor Disagreement","Slight Agreement","Moderate Agreement","Moderate Agreement","Slight Agreement","Slight Agreement","Moderate Agreement","Slight Disagreement","Neither Agreement nor Disagreement","Slight Disagreement","Neither Agreement nor Disagreement"
"13","A29RCIFHRAZ797:3TEM0PF1Q635DUMHBBODNDK1BG80D5","practice",2,1,2,"NA","<p style=""font-size:100px""><b>D</b></p><p style=""position: absolute; top: 30px; right: 30px; text-align:right; font-size:50px"""">N = 2</p>","D",0,73,196.100000143051,1,"agree",13,15,13,13,14,"25","male","none","Strong Disagreement","Moderate Agreement","Neither Agreement nor Disagreement","Slight Agreement","Slight Agreement","Moderate Agreement","Moderate Agreement","Neither Agreement nor Disagreement","Slight Agreement","Moderate Agreement","Moderate Agreement","Slight Agreement","Slight Agreement","Moderate Agreement","Slight Disagreement","Neither Agreement nor Disagreement","Slight Disagreement","Neither Agreement nor Disagreement"
"14","A29RCIFHRAZ797:3TEM0PF1Q635DUMHBBODNDK1BG80D5","practice",2,2,2,"NA","<p style=""font-size:100px""><b>g</b></p><p style=""position: absolute; top: 30px; right: 30px; text-align:right; font-size:50px"""">N = 2</p>","g",0,69,151.799999952316,0,"agree",13,15,13,13,14,"25","male","none","Strong Disagreement","Moderate Agreement","Neither Agreement nor Disagreement","Slight Agreement","Slight Agreement","Moderate Agreement","Moderate Agreement","Neither Agreement nor Disagreement","Slight Agreement","Moderate Agreement","Moderate Agreement","Slight Agreement","Slight Agreement","Moderate Agreement","Slight Disagreement","Neither Agreement nor Disagreement","Slight Disagreement","Neither Agreement nor Disagreement"
"15","A29RCIFHRAZ797:3TEM0PF1Q635DUMHBBODNDK1BG80D5","practice",2,3,2,"NA","<p style=""font-size:100px""><b>p</b></p><p style=""position: absolute; top: 30px; right: 30px; text-align:right; font-size:50px"""">N = 2</p>","p",0,73,499.900000095367,1,"agree",13,15,13,13,14,"25","male","none","Strong Disagreement","Moderate Agreement","Neither Agreement nor Disagreement","Slight Agreement","Slight Agreement","Moderate Agreement","Moderate Agreement","Neither Agreement nor Disagreement","Slight Agreement","Moderate Agreement","Moderate Agreement","Slight Agreement","Slight Agreement","Moderate Agreement","Slight Disagreement","Neither Agreement nor Disagreement","Slight Disagreement","Neither Agreement nor Disagreement"
"16","A29RCIFHRAZ797:3TEM0PF1Q635DUMHBBODNDK1BG80D5","practice",2,4,2,"NA","<p style=""font-size:100px""><b>D</b></p><p style=""position: absolute; top: 30px; right: 30px; text-align:right; font-size:50px"""">N = 2</p>","D",0,73,101.700000047684,1,"agree",13,15,13,13,14,"25","male","none","Strong Disagreement","Moderate Agreement","Neither Agreement nor Disagreement","Slight Agreement","Slight Agreement","Moderate Agreement","Moderate Agreement","Neither Agreement nor Disagreement","Slight Agreement","Moderate Agreement","Moderate Agreement","Slight Agreement","Slight Agreement","Moderate Agreement","Slight Disagreement","Neither Agreement nor Disagreement","Slight Disagreement","Neither Agreement nor Disagreement"
"17","A29RCIFHRAZ797:3TEM0PF1Q635DUMHBBODNDK1BG80D5","practice",2,5,2,"NA","<p style=""font-size:100px""><b>G</b></p><p style=""position: absolute; top: 30px; right: 30px; text-align:right; font-size:50px"""">N = 2</p>","G",0,69,2112.40000009537,0,"agree",13,15,13,13,14,"25","male","none","Strong Disagreement","Moderate Agreement","Neither Agreement nor Disagreement","Slight Agreement","Slight Agreement","Moderate Agreement","Moderate Agreement","Neither Agreement nor Disagreement","Slight Agreement","Moderate Agreement","Moderate Agreement","Slight Agreement","Slight Agreement","Moderate Agreement","Slight Disagreement","Neither Agreement nor Disagreement","Slight Disagreement","Neither Agreement nor Disagreement"
"18","A29RCIFHRAZ797:3TEM0PF1Q635DUMHBBODNDK1BG80D5","practice",2,6,2,"NA","<p style=""font-size:100px""><b>D</b></p><p style=""position: absolute; top: 30px; right: 30px; text-align:right; font-size:50px"""">N = 2</p>","D",1,73,126.799999952316,0,"agree",13,15,13,13,14,"25","male","none","Strong Disagreement","Moderate Agreement","Neither Agreement nor Disagreement","Slight Agreement","Slight Agreement","Moderate Agreement","Moderate Agreement","Neither Agreement nor Disagreement","Slight Agreement","Moderate Agreement","Moderate Agreement","Slight Agreement","Slight Agreement","Moderate Agreement","Slight Disagreement","Neither Agreement nor Disagreement","Slight Disagreement","Neither Agreement nor Disagreement"
"19","A29RCIFHRAZ797:3TEM0PF1Q635DUMHBBODNDK1BG80D5","practice",2,7,2,"NA","<p style=""font-size:100px""><b>G</b></p><p style=""position: absolute; top: 30px; right: 30px; text-align:right; font-size:50px"""">N = 2</p>","G",1,69,166,1,"agree",13,15,13,13,14,"25","male","none","Strong Disagreement","Moderate Agreement","Neither Agreement nor Disagreement","Slight Agreement","Slight Agreement","Moderate Agreement","Moderate Agreement","Neither Agreement nor Disagreement","Slight Agreement","Moderate Agreement","Moderate Agreement","Slight Agreement","Slight Agreement","Moderate Agreement","Slight Disagreement","Neither Agreement nor Disagreement","Slight Disagreement","Neither Agreement nor Disagreement"
"20","A29RCIFHRAZ797:3TEM0PF1Q635DUMHBBODNDK1BG80D5","practice",2,8,2,"NA","<p style=""font-size:100px""><b>t</b></p><p style=""position: absolute; top: 30px; right: 30px; text-align:right; font-size:50px"""">N = 2</p>","t",0,69,67,0,"agree",13,15,13,13,14,"25","male","none","Strong Disagreement","Moderate Agreement","Neither Agreement nor Disagreement","Slight Agreement","Slight Agreement","Moderate Agreement","Moderate Agreement","Neither Agreement nor Disagreement","Slight Agreement","Moderate Agreement","Moderate Agreement","Slight Agreement","Slight Agreement","Moderate Agreement","Slight Disagreement","Neither Agreement nor Disagreement","Slight Disagreement","Neither Agreement nor Disagreement"
"21","A29RCIFHRAZ797:3TEM0PF1Q635DUMHBBODNDK1BG80D5","practice",2,9,2,"NA","<p style=""font-size:100px""><b>t</b></p><p style=""position: absolute; top: 30px; right: 30px; text-align:right; font-size:50px"""">N = 2</p>","t",0,73,167.400000095367,1,"agree",13,15,13,13,14,"25","male","none","Strong Disagreement","Moderate Agreement","Neither Agreement nor Disagreement","Slight Agreement","Slight Agreement","Moderate Agreement","Moderate Agreement","Neither Agreement nor Disagreement","Slight Agreement","Moderate Agreement","Moderate Agreement","Slight Agreement","Slight Agreement","Moderate Agreement","Slight Disagreement","Neither Agreement nor Disagreement","Slight Disagreement","Neither Agreement nor Disagreement"
"22","A29RCIFHRAZ797:3TEM0PF1Q635DUMHBBODNDK1BG80D5","practice",2,10,2,"NA","<p style=""font-size:100px""><b>t</b></p><p style=""position: absolute; top: 30px; right: 30px; text-align:right; font-size:50px"""">N = 2</p>","t",1,73,37.8999998569489,0,"agree",13,15,13,13,14,"25","male","none","Strong Disagreement","Moderate Agreement","Neither Agreement nor Disagreement","Slight Agreement","Slight Agreement","Moderate Agreement","Moderate Agreement","Neither Agreement nor Disagreement","Slight Agreement","Moderate Agreement","Moderate Agreement","Slight Agreement","Slight Agreement","Moderate Agreement","Slight Disagreement","Neither Agreement nor Disagreement","Slight Disagreement","Neither Agreement nor Disagreement"
"23","A29RCIFHRAZ797:3TEM0PF1Q635DUMHBBODNDK1BG80D5","practice",2,11,2,"NA","<p style=""font-size:100px""><b>t</b></p><p style=""position: absolute; top: 30px; right: 30px; text-align:right; font-size:50px"""">N = 2</p>","t",1,73,92.0999999046326,0,"agree",13,15,13,13,14,"25","male","none","Strong Disagreement","Moderate Agreement","Neither Agreement nor Disagreement","Slight Agreement","Slight Agreement","Moderate Agreement","Moderate Agreement","Neither Agreement nor Disagreement","Slight Agreement","Moderate Agreement","Moderate Agreement","Slight Agreement","Slight Agreement","Moderate Agreement","Slight Disagreement","Neither Agreement nor Disagreement","Slight Disagreement","Neither Agreement nor Disagreement"
"24","A29RCIFHRAZ797:3TEM0PF1Q635DUMHBBODNDK1BG80D5","practice",2,12,2,"NA","<p style=""font-size:100px""><b>B</b></p><p style=""position: absolute; top: 30px; right: 30px; text-align:right; font-size:50px"""">N = 2</p>","B",0,73,114,1,"agree",13,15,13,13,14,"25","male","none","Strong Disagreement","Moderate Agreement","Neither Agreement nor Disagreement","Slight Agreement","Slight Agreement","Moderate Agreement","Moderate Agreement","Neither Agreement nor Disagreement","Slight Agreement","Moderate Agreement","Moderate Agreement","Slight Agreement","Slight Agreement","Moderate Agreement","Slight Disagreement","Neither Agreement nor Disagreement","Slight Disagreement","Neither Agreement nor Disagreement"
"25","A29RCIFHRAZ797:3TEM0PF1Q635DUMHBBODNDK1BG80D5","practice",3,1,3,"NA","<p style=""font-size:100px""><b>g</b></p><p style=""position: absolute; top: 30px; right: 30px; text-align:right; font-size:50px"""">N = 3</p>","g",0,73,130.900000095367,1,"agree",13,15,13,13,14,"25","male","none","Strong Disagreement","Moderate Agreement","Neither Agreement nor Disagreement","Slight Agreement","Slight Agreement","Moderate Agreement","Moderate Agreement","Neither Agreement nor Disagreement","Slight Agreement","Moderate Agreement","Moderate Agreement","Slight Agreement","Slight Agreement","Moderate Agreement","Slight Disagreement","Neither Agreement nor Disagreement","Slight Disagreement","Neither Agreement nor Disagreement"
"26","A29RCIFHRAZ797:3TEM0PF1Q635DUMHBBODNDK1BG80D5","practice",3,2,3,"NA","<p style=""font-size:100px""><b>G</b></p><p style=""position: absolute; top: 30px; right: 30px; text-align:right; font-size:50px"""">N = 3</p>","G",0,69,159.5,0,"agree",13,15,13,13,14,"25","male","none","Strong Disagreement","Moderate Agreement","Neither Agreement nor Disagreement","Slight Agreement","Slight Agreement","Moderate Agreement","Moderate Agreement","Neither Agreement nor Disagreement","Slight Agreement","Moderate Agreement","Moderate Agreement","Slight Agreement","Slight Agreement","Moderate Agreement","Slight Disagreement","Neither Agreement nor Disagreement","Slight Disagreement","Neither Agreement nor Disagreement"
"27","A29RCIFHRAZ797:3TEM0PF1Q635DUMHBBODNDK1BG80D5","practice",3,3,3,"NA","<p style=""font-size:100px""><b>V</b></p><p style=""position: absolute; top: 30px; right: 30px; text-align:right; font-size:50px"""">N = 3</p>","V",0,73,3.40000009536743,1,"agree",13,15,13,13,14,"25","male","none","Strong Disagreement","Moderate Agreement","Neither Agreement nor Disagreement","Slight Agreement","Slight Agreement","Moderate Agreement","Moderate Agreement","Neither Agreement nor Disagreement","Slight Agreement","Moderate Agreement","Moderate Agreement","Slight Agreement","Slight Agreement","Moderate Agreement","Slight Disagreement","Neither Agreement nor Disagreement","Slight Disagreement","Neither Agreement nor Disagreement"
"28","A29RCIFHRAZ797:3TEM0PF1Q635DUMHBBODNDK1BG80D5","practice",3,4,3,"NA","<p style=""font-size:100px""><b>v</b></p><p style=""position: absolute; top: 30px; right: 30px; text-align:right; font-size:50px"""">N = 3</p>","v",0,73,71.6999998092651,1,"agree",13,15,13,13,14,"25","male","none","Strong Disagreement","Moderate Agreement","Neither Agreement nor Disagreement","Slight Agreement","Slight Agreement","Moderate Agreement","Moderate Agreement","Neither Agreement nor Disagreement","Slight Agreement","Moderate Agreement","Moderate Agreement","Slight Agreement","Slight Agreement","Moderate Agreement","Slight Disagreement","Neither Agreement nor Disagreement","Slight Disagreement","Neither Agreement nor Disagreement"
"29","A29RCIFHRAZ797:3TEM0PF1Q635DUMHBBODNDK1BG80D5","practice",3,5,3,"NA","<p style=""font-size:100px""><b>t</b></p><p style=""position: absolute; top: 30px; right: 30px; text-align:right; font-size:50px"""">N = 3</p>","t",0,69,140.900000095367,0,"agree",13,15,13,13,14,"25","male","none","Strong Disagreement","Moderate Agreement","Neither Agreement nor Disagreement","Slight Agreement","Slight Agreement","Moderate Agreement","Moderate Agreement","Neither Agreement nor Disagreement","Slight Agreement","Moderate Agreement","Moderate Agreement","Slight Agreement","Slight Agreement","Moderate Agreement","Slight Disagreement","Neither Agreement nor Disagreement","Slight Disagreement","Neither Agreement nor Disagreement"
"30","A29RCIFHRAZ797:3TEM0PF1Q635DUMHBBODNDK1BG80D5","practice",3,6,3,"NA","<p style=""font-size:100px""><b>V</b></p><p style=""position: absolute; top: 30px; right: 30px; text-align:right; font-size:50px"""">N = 3</p>","V",1,69,69.2999999523163,1,"agree",13,15,13,13,14,"25","male","none","Strong Disagreement","Moderate Agreement","Neither Agreement nor Disagreement","Slight Agreement","Slight Agreement","Moderate Agreement","Moderate Agreement","Neither Agreement nor Disagreement","Slight Agreement","Moderate Agreement","Moderate Agreement","Slight Agreement","Slight Agreement","Moderate Agreement","Slight Disagreement","Neither Agreement nor Disagreement","Slight Disagreement","Neither Agreement nor Disagreement"
"31","A29RCIFHRAZ797:3TEM0PF1Q635DUMHBBODNDK1BG80D5","practice",3,7,3,"NA","<p style=""font-size:100px""><b>G</b></p><p style=""position: absolute; top: 30px; right: 30px; text-align:right; font-size:50px"""">N = 3</p>","G",0,73,19.7000000476837,1,"agree",13,15,13,13,14,"25","male","none","Strong Disagreement","Moderate Agreement","Neither Agreement nor Disagreement","Slight Agreement","Slight Agreement","Moderate Agreement","Moderate Agreement","Neither Agreement nor Disagreement","Slight Agreement","Moderate Agreement","Moderate Agreement","Slight Agreement","Slight Agreement","Moderate Agreement","Slight Disagreement","Neither Agreement nor Disagreement","Slight Disagreement","Neither Agreement nor Disagreement"
"32","A29RCIFHRAZ797:3TEM0PF1Q635DUMHBBODNDK1BG80D5","practice",3,8,3,"NA","<p style=""font-size:100px""><b>g</b></p><p style=""position: absolute; top: 30px; right: 30px; text-align:right; font-size:50px"""">N = 3</p>","g",0,69,214.099999904633,0,"agree",13,15,13,13,14,"25","male","none","Strong Disagreement","Moderate Agreement","Neither Agreement nor Disagreement","Slight Agreement","Slight Agreement","Moderate Agreement","Moderate Agreement","Neither Agreement nor Disagreement","Slight Agreement","Moderate Agreement","Moderate Agreement","Slight Agreement","Slight Agreement","Moderate Agreement","Slight Disagreement","Neither Agreement nor Disagreement","Slight Disagreement","Neither Agreement nor Disagreement"
"33","A29RCIFHRAZ797:3TEM0PF1Q635DUMHBBODNDK1BG80D5","practice",3,9,3,"NA","<p style=""font-size:100px""><b>V</b></p><p style=""position: absolute; top: 30px; right: 30px; text-align:right; font-size:50px"""">N = 3</p>","V",1,73,276.799999952316,0,"agree",13,15,13,13,14,"25","male","none","Strong Disagreement","Moderate Agreement","Neither Agreement nor Disagreement","Slight Agreement","Slight Agreement","Moderate Agreement","Moderate Agreement","Neither Agreement nor Disagreement","Slight Agreement","Moderate Agreement","Moderate Agreement","Slight Agreement","Slight Agreement","Moderate Agreement","Slight Disagreement","Neither Agreement nor Disagreement","Slight Disagreement","Neither Agreement nor Disagreement"
"34","A29RCIFHRAZ797:3TEM0PF1Q635DUMHBBODNDK1BG80D5","practice",3,10,3,"NA","<p style=""font-size:100px""><b>G</b></p><p style=""position: absolute; top: 30px; right: 30px; text-align:right; font-size:50px"""">N = 3</p>","G",1,69,36.0999999046326,1,"agree",13,15,13,13,14,"25","male","none","Strong Disagreement","Moderate Agreement","Neither Agreement nor Disagreement","Slight Agreement","Slight Agreement","Moderate Agreement","Moderate Agreement","Neither Agreement nor Disagreement","Slight Agreement","Moderate Agreement","Moderate Agreement","Slight Agreement","Slight Agreement","Moderate Agreement","Slight Disagreement","Neither Agreement nor Disagreement","Slight Disagreement","Neither Agreement nor Disagreement"
"35","A29RCIFHRAZ797:3TEM0PF1Q635DUMHBBODNDK1BG80D5","practice",3,11,3,"NA","<p style=""font-size:100px""><b>g</b></p><p style=""position: absolute; top: 30px; right: 30px; text-align:right; font-size:50px"""">N = 3</p>","g",1,69,1955,1,"agree",13,15,13,13,14,"25","male","none","Strong Disagreement","Moderate Agreement","Neither Agreement nor Disagreement","Slight Agreement","Slight Agreement","Moderate Agreement","Moderate Agreement","Neither Agreement nor Disagreement","Slight Agreement","Moderate Agreement","Moderate Agreement","Slight Agreement","Slight Agreement","Moderate Agreement","Slight Disagreement","Neither Agreement nor Disagreement","Slight Disagreement","Neither Agreement nor Disagreement"
"36","A29RCIFHRAZ797:3TEM0PF1Q635DUMHBBODNDK1BG80D5","practice",3,12,3,"NA","<p style=""font-size:100px""><b>t</b></p><p style=""position: absolute; top: 30px; right: 30px; text-align:right; font-size:50px"""">N = 3</p>","t",0,69,12.2000000476837,0,"agree",13,15,13,13,14,"25","male","none","Strong Disagreement","Moderate Agreement","Neither Agreement nor Disagreement","Slight Agreement","Slight Agreement","Moderate Agreement","Moderate Agreement","Neither Agreement nor Disagreement","Slight Agreement","Moderate Agreement","Moderate Agreement","Slight Agreement","Slight Agreement","Moderate Agreement","Slight Disagreement","Neither Agreement nor Disagreement","Slight Disagreement","Neither Agreement nor Disagreement"
"37","A29RCIFHRAZ797:3TEM0PF1Q635DUMHBBODNDK1BG80D5","1",1,1,1,"50","<p style=""font-size:100px""><b>B</b></p><p style=""position: absolute; top: 30px; right: 30px; text-align:right; font-size:50px"""">N = 1</p>","B",0,69,849.299999952316,0,"agree",13,15,13,13,14,"25","male","none","Strong Disagreement","Moderate Agreement","Neither Agreement nor Disagreement","Slight Agreement","Slight Agreement","Moderate Agreement","Moderate Agreement","Neither Agreement nor Disagreement","Slight Agreement","Moderate Agreement","Moderate Agreement","Slight Agreement","Slight Agreement","Moderate Agreement","Slight Disagreement","Neither Agreement nor Disagreement","Slight Disagreement","Neither Agreement nor Disagreement"
"38","A29RCIFHRAZ797:3TEM0PF1Q635DUMHBBODNDK1BG80D5","1",1,2,1,"50","<p style=""font-size:100px""><b>B</b></p><p style=""position: absolute; top: 30px; right: 30px; text-align:right; font-size:50px"""">N = 1</p>","B",0,69,347.700000047684,0,"agree",13,15,13,13,14,"25","male","none","Strong Disagreement","Moderate Agreement","Neither Agreement nor Disagreement","Slight Agreement","Slight Agreement","Moderate Agreement","Moderate Agreement","Neither Agreement nor Disagreement","Slight Agreement","Moderate Agreement","Moderate Agreement","Slight Agreement","Slight Agreement","Moderate Agreement","Slight Disagreement","Neither Agreement nor Disagreement","Slight Disagreement","Neither Agreement nor Disagreement"
"39","A29RCIFHRAZ797:3TEM0PF1Q635DUMHBBODNDK1BG80D5","1",1,3,1,"50","<p style=""font-size:100px""><b>D</b></p><p style=""position: absolute; top: 30px; right: 30px; text-align:right; font-size:50px"""">N = 1</p>","D",0,73,381.400000095367,1,"agree",13,15,13,13,14,"25","male","none","Strong Disagreement","Moderate Agreement","Neither Agreement nor Disagreement","Slight Agreement","Slight Agreement","Moderate Agreement","Moderate Agreement","Neither Agreement nor Disagreement","Slight Agreement","Moderate Agreement","Moderate Agreement","Slight Agreement","Slight Agreement","Moderate Agreement","Slight Disagreement","Neither Agreement nor Disagreement","Slight Disagreement","Neither Agreement nor Disagreement"
"40","A29RCIFHRAZ797:3TEM0PF1Q635DUMHBBODNDK1BG80D5","1",1,4,1,"50","<p style=""font-size:100px""><b>D</b></p><p style=""position: absolute; top: 30px; right: 30px; text-align:right; font-size:50px"""">N = 1</p>","D",0,69,403.899999856949,0,"agree",13,15,13,13,14,"25","male","none","Strong Disagreement","Moderate Agreement","Neither Agreement nor Disagreement","Slight Agreement","Slight Agreement","Moderate Agreement","Moderate Agreement","Neither Agreement nor Disagreement","Slight Agreement","Moderate Agreement","Moderate Agreement","Slight Agreement","Slight Agreement","Moderate Agreement","Slight Disagreement","Neither Agreement nor Disagreement","Slight Disagreement","Neither Agreement nor Disagreement"
"41","A29RCIFHRAZ797:3TEM0PF1Q635DUMHBBODNDK1BG80D5","1",1,5,1,"50","<p style=""font-size:100px""><b>D</b></p><p style=""position: absolute; top: 30px; right: 30px; text-align:right; font-size:50px"""">N = 1</p>","D",0,73,520.300000190735,1,"agree",13,15,13,13,14,"25","male","none","Strong Disagreement","Moderate Agreement","Neither Agreement nor Disagreement","Slight Agreement","Slight Agreement","Moderate Agreement","Moderate Agreement","Neither Agreement nor Disagreement","Slight Agreement","Moderate Agreement","Moderate Agreement","Slight Agreement","Slight Agreement","Moderate Agreement","Slight Disagreement","Neither Agreement nor Disagreement","Slight Disagreement","Neither Agreement nor Disagreement"
"42","A29RCIFHRAZ797:3TEM0PF1Q635DUMHBBODNDK1BG80D5","1",1,6,1,"50","<p style=""font-size:100px""><b>G</b></p><p style=""position: absolute; top: 30px; right: 30px; text-align:right; font-size:50px"""">N = 1</p>","G",0,69,474.200000047684,0,"agree",13,15,13,13,14,"25","male","none","Strong Disagreement","Moderate Agreement","Neither Agreement nor Disagreement","Slight Agreement","Slight Agreement","Moderate Agreement","Moderate Agreement","Neither Agreement nor Disagreement","Slight Agreement","Moderate Agreement","Moderate Agreement","Slight Agreement","Slight Agreement","Moderate Agreement","Slight Disagreement","Neither Agreement nor Disagreement","Slight Disagreement","Neither Agreement nor Disagreement"
"43","A29RCIFHRAZ797:3TEM0PF1Q635DUMHBBODNDK1BG80D5","1",1,7,1,"50","<p style=""font-size:100px""><b>B</b></p><p style=""position: absolute; top: 30px; right: 30px; text-align:right; font-size:50px"""">N = 1</p>","B",0,69,27.3999998569489,0,"agree",13,15,13,13,14,"25","male","none","Strong Disagreement","Moderate Agreement","Neither Agreement nor Disagreement","Slight Agreement","Slight Agreement","Moderate Agreement","Moderate Agreement","Neither Agreement nor Disagreement","Slight Agreement","Moderate Agreement","Moderate Agreement","Slight Agreement","Slight Agreement","Moderate Agreement","Slight Disagreement","Neither Agreement nor Disagreement","Slight Disagreement","Neither Agreement nor Disagreement"
"44","A29RCIFHRAZ797:3TEM0PF1Q635DUMHBBODNDK1BG80D5","1",1,8,1,"50","<p style=""font-size:100px""><b>B</b></p><p style=""position: absolute; top: 30px; right: 30px; text-align:right; font-size:50px"""">N = 1</p>","B",0,69,404.400000095367,0,"agree",13,15,13,13,14,"25","male","none","Strong Disagreement","Moderate Agreement","Neither Agreement nor Disagreement","Slight Agreement","Slight Agreement","Moderate Agreement","Moderate Agreement","Neither Agreement nor Disagreement","Slight Agreement","Moderate Agreement","Moderate Agreement","Slight Agreement","Slight Agreement","Moderate Agreement","Slight Disagreement","Neither Agreement nor Disagreement","Slight Disagreement","Neither Agreement nor Disagreement"
"45","A29RCIFHRAZ797:3TEM0PF1Q635DUMHBBODNDK1BG80D5","1",1,9,1,"50","<p style=""font-size:100px""><b>p</b></p><p style=""position: absolute; top: 30px; right: 30px; text-align:right; font-size:50px"""">N = 1</p>","p",0,73,372.399999856949,1,"agree",13,15,13,13,14,"25","male","none","Strong Disagreement","Moderate Agreement","Neither Agreement nor Disagreement","Slight Agreement","Slight Agreement","Moderate Agreement","Moderate Agreement","Neither Agreement nor Disagreement","Slight Agreement","Moderate Agreement","Moderate Agreement","Slight Agreement","Slight Agreement","Moderate Agreement","Slight Disagreement","Neither Agreement nor Disagreement","Slight Disagreement","Neither Agreement nor Disagreement"
"46","A29RCIFHRAZ797:3TEM0PF1Q635DUMHBBODNDK1BG80D5","1",1,10,1,"50","<p style=""font-size:100px""><b>b</b></p><p style=""position: absolute; top: 30px; right: 30px; text-align:right; font-size:50px"""">N = 1</p>","b",0,73,282.700000047684,1,"agree",13,15,13,13,14,"25","male","none","Strong Disagreement","Moderate Agreement","Neither Agreement nor Disagreement","Slight Agreement","Slight Agreement","Moderate Agreement","Moderate Agreement","Neither Agreement nor Disagreement","Slight Agreement","Moderate Agreement","Moderate Agreement","Slight Agreement","Slight Agreement","Moderate Agreement","Slight Disagreement","Neither Agreement nor Disagreement","Slight Disagreement","Neither Agreement nor Disagreement"
"47","A29RCIFHRAZ797:3TEM0PF1Q635DUMHBBODNDK1BG80D5","1",1,11,1,"50","<p style=""font-size:100px""><b>v</b></p><p style=""position: absolute; top: 30px; right: 30px; text-align:right; font-size:50px"""">N = 1</p>","v",0,73,419.299999952316,1,"agree",13,15,13,13,14,"25","male","none","Strong Disagreement","Moderate Agreement","Neither Agreement nor Disagreement","Slight Agreement","Slight Agreement","Moderate Agreement","Moderate Agreement","Neither Agreement nor Disagreement","Slight Agreement","Moderate Agreement","Moderate Agreement","Slight Agreement","Slight Agreement","Moderate Agreement","Slight Disagreement","Neither Agreement nor Disagreement","Slight Disagreement","Neither Agreement nor Disagreement"
"48","A29RCIFHRAZ797:3TEM0PF1Q635DUMHBBODNDK1BG80D5","1",1,12,1,"50","<p style=""font-size:100px""><b>T</b></p><p style=""position: absolute; top: 30px; right: 30px; text-align:right; font-size:50px"""">N = 1</p>","T",0,73,384.400000095367,1,"agree",13,15,13,13,14,"25","male","none","Strong Disagreement","Moderate Agreement","Neither Agreement nor Disagreement","Slight Agreement","Slight Agreement","Moderate Agreement","Moderate Agreement","Neither Agreement nor Disagreement","Slight Agreement","Moderate Agreement","Moderate Agreement","Slight Agreement","Slight Agreement","Moderate Agreement","Slight Disagreement","Neither Agreement nor Disagreement","Slight Disagreement","Neither Agreement nor Disagreement"
"49","A29RCIFHRAZ797:3TEM0PF1Q635DUMHBBODNDK1BG80D5","1",2,1,3,"5","<p style=""font-size:100px""><b>p</b></p><p style=""position: absolute; top: 30px; right: 30px; text-align:right; font-size:50px"""">N = 3</p>","p",0,73,103.5,1,"agree",15,15,14,15,15,"25","male","none","Strong Disagreement","Moderate Agreement","Neither Agreement nor Disagreement","Slight Agreement","Slight Agreement","Moderate Agreement","Moderate Agreement","Neither Agreement nor Disagreement","Slight Agreement","Moderate Agreement","Moderate Agreement","Slight Agreement","Slight Agreement","Moderate Agreement","Slight Disagreement","Neither Agreement nor Disagreement","Slight Disagreement","Neither Agreement nor Disagreement"
"50","A29RCIFHRAZ797:3TEM0PF1Q635DUMHBBODNDK1BG80D5","1",2,2,3,"5","<p style=""font-size:100px""><b>V</b></p><p style=""position: absolute; top: 30px; right: 30px; text-align:right; font-size:50px"""">N = 3</p>","V",0,73,380.799999952316,1,"agree",15,15,14,15,15,"25","male","none","Strong Disagreement","Moderate Agreement","Neither Agreement nor Disagreement","Slight Agreement","Slight Agreement","Moderate Agreement","Moderate Agreement","Neither Agreement nor Disagreement","Slight Agreement","Moderate Agreement","Moderate Agreement","Slight Agreement","Slight Agreement","Moderate Agreement","Slight Disagreement","Neither Agreement nor Disagreement","Slight Disagreement","Neither Agreement nor Disagreement"
"51","A29RCIFHRAZ797:3TEM0PF1Q635DUMHBBODNDK1BG80D5","1",2,3,3,"5","<p style=""font-size:100px""><b>b</b></p><p style=""position: absolute; top: 30px; right: 30px; text-align:right; font-size:50px"""">N = 3</p>","b",0,69,352.300000190735,0,"agree",15,15,14,15,15,"25","male","none","Strong Disagreement","Moderate Agreement","Neither Agreement nor Disagreement","Slight Agreement","Slight Agreement","Moderate Agreement","Moderate Agreement","Neither Agreement nor Disagreement","Slight Agreement","Moderate Agreement","Moderate Agreement","Slight Agreement","Slight Agreement","Moderate Agreement","Slight Disagreement","Neither Agreement nor Disagreement","Slight Disagreement","Neither Agreement nor Disagreement"
"52","A29RCIFHRAZ797:3TEM0PF1Q635DUMHBBODNDK1BG80D5","1",2,4,3,"5","<p style=""font-size:100px""><b>D</b></p><p style=""position: absolute; top: 30px; right: 30px; text-align:right; font-size:50px"""">N = 3</p>","D",0,69,441.300000190735,0,"agree",15,15,14,15,15,"25","male","none","Strong Disagreement","Moderate Agreement","Neither Agreement nor Disagreement","Slight Agreement","Slight Agreement","Moderate Agreement","Moderate Agreement","Neither Agreement nor Disagreement","Slight Agreement","Moderate Agreement","Moderate Agreement","Slight Agreement","Slight Agreement","Moderate Agreement","Slight Disagreement","Neither Agreement nor Disagreement","Slight Disagreement","Neither Agreement nor Disagreement"
"53","A29RCIFHRAZ797:3TEM0PF1Q635DUMHBBODNDK1BG80D5","1",2,5,3,"5","<p style=""font-size:100px""><b>V</b></p><p style=""position: absolute; top: 30px; right: 30px; text-align:right; font-size:50px"""">N = 3</p>","V",0,73,267.099999904633,1,"agree",15,15,14,15,15,"25","male","none","Strong Disagreement","Moderate Agreement","Neither Agreement nor Disagreement","Slight Agreement","Slight Agreement","Moderate Agreement","Moderate Agreement","Neither Agreement nor Disagreement","Slight Agreement","Moderate Agreement","Moderate Agreement","Slight Agreement","Slight Agreement","Moderate Agreement","Slight Disagreement","Neither Agreement nor Disagreement","Slight Disagreement","Neither Agreement nor Disagreement"
"54","A29RCIFHRAZ797:3TEM0PF1Q635DUMHBBODNDK1BG80D5","1",2,6,3,"5","<p style=""font-size:100px""><b>T</b></p><p style=""position: absolute; top: 30px; right: 30px; text-align:right; font-size:50px"""">N = 3</p>","T",0,73,239.5,1,"agree",15,15,14,15,15,"25","male","none","Strong Disagreement","Moderate Agreement","Neither Agreement nor Disagreement","Slight Agreement","Slight Agreement","Moderate Agreement","Moderate Agreement","Neither Agreement nor Disagreement","Slight Agreement","Moderate Agreement","Moderate Agreement","Slight Agreement","Slight Agreement","Moderate Agreement","Slight Disagreement","Neither Agreement nor Disagreement","Slight Disagreement","Neither Agreement nor Disagreement"
"55","A29RCIFHRAZ797:3TEM0PF1Q635DUMHBBODNDK1BG80D5","1",2,7,3,"5","<p style=""font-size:100px""><b>D</b></p><p style=""position: absolute; top: 30px; right: 30px; text-align:right; font-size:50px"""">N = 3</p>","D",0,73,199.799999952316,1,"agree",15,15,14,15,15,"25","male","none","Strong Disagreement","Moderate Agreement","Neither Agreement nor Disagreement","Slight Agreement","Slight Agreement","Moderate Agreement","Moderate Agreement","Neither Agreement nor Disagreement","Slight Agreement","Moderate Agreement","Moderate Agreement","Slight Agreement","Slight Agreement","Moderate Agreement","Slight Disagreement","Neither Agreement nor Disagreement","Slight Disagreement","Neither Agreement nor Disagreement"
"56","A29RCIFHRAZ797:3TEM0PF1Q635DUMHBBODNDK1BG80D5","1",2,8,3,"5","<p style=""font-size:100px""><b>p</b></p><p style=""position: absolute; top: 30px; right: 30px; text-align:right; font-size:50px"""">N = 3</p>","p",0,69,201.200000047684,0,"agree",15,15,14,15,15,"25","male","none","Strong Disagreement","Moderate Agreement","Neither Agreement nor Disagreement","Slight Agreement","Slight Agreement","Moderate Agreement","Moderate Agreement","Neither Agreement nor Disagreement","Slight Agreement","Moderate Agreement","Moderate Agreement","Slight Agreement","Slight Agreement","Moderate Agreement","Slight Disagreement","Neither Agreement nor Disagreement","Slight Disagreement","Neither Agreement nor Disagreement"
"57","A29RCIFHRAZ797:3TEM0PF1Q635DUMHBBODNDK1BG80D5","1",2,9,3,"5","<p style=""font-size:100px""><b>T</b></p><p style=""position: absolute; top: 30px; right: 30px; text-align:right; font-size:50px"""">N = 3</p>","T",0,73,238.300000190735,1,"agree",15,15,14,15,15,"25","male","none","Strong Disagreement","Moderate Agreement","Neither Agreement nor Disagreement","Slight Agreement","Slight Agreement","Moderate Agreement","Moderate Agreement","Neither Agreement nor Disagreement","Slight Agreement","Moderate Agreement","Moderate Agreement","Slight Agreement","Slight Agreement","Moderate Agreement","Slight Disagreement","Neither Agreement nor Disagreement","Slight Disagreement","Neither Agreement nor Disagreement"
"58","A29RCIFHRAZ797:3TEM0PF1Q635DUMHBBODNDK1BG80D5","1",2,10,3,"5","<p style=""font-size:100px""><b>G</b></p><p style=""position: absolute; top: 30px; right: 30px; text-align:right; font-size:50px"""">N = 3</p>","G",0,69,185.700000047684,0,"agree",15,15,14,15,15,"25","male","none","Strong Disagreement","Moderate Agreement","Neither Agreement nor Disagreement","Slight Agreement","Slight Agreement","Moderate Agreement","Moderate Agreement","Neither Agreement nor Disagreement","Slight Agreement","Moderate Agreement","Moderate Agreement","Slight Agreement","Slight Agreement","Moderate Agreement","Slight Disagreement","Neither Agreement nor Disagreement","Slight Disagreement","Neither Agreement nor Disagreement"
"59","A29RCIFHRAZ797:3TEM0PF1Q635DUMHBBODNDK1BG80D5","1",2,11,3,"5","<p style=""font-size:100px""><b>p</b></p><p style=""position: absolute; top: 30px; right: 30px; text-align:right; font-size:50px"""">N = 3</p>","p",0,73,139.599999904633,1,"agree",15,15,14,15,15,"25","male","none","Strong Disagreement","Moderate Agreement","Neither Agreement nor Disagreement","Slight Agreement","Slight Agreement","Moderate Agreement","Moderate Agreement","Neither Agreement nor Disagreement","Slight Agreement","Moderate Agreement","Moderate Agreement","Slight Agreement","Slight Agreement","Moderate Agreement","Slight Disagreement","Neither Agreement nor Disagreement","Slight Disagreement","Neither Agreement nor Disagreement"
"60","A29RCIFHRAZ797:3TEM0PF1Q635DUMHBBODNDK1BG80D5","1",2,12,3,"5","<p style=""font-size:100px""><b>d</b></p><p style=""position: absolute; top: 30px; right: 30px; text-align:right; font-size:50px"""">N = 3</p>","d",0,69,67.2000000476837,0,"agree",15,15,14,15,15,"25","male","none","Strong Disagreement","Moderate Agreement","Neither Agreement nor Disagreement","Slight Agreement","Slight Agreement","Moderate Agreement","Moderate Agreement","Neither Agreement nor Disagreement","Slight Agreement","Moderate Agreement","Moderate Agreement","Slight Agreement","Slight Agreement","Moderate Agreement","Slight Disagreement","Neither Agreement nor Disagreement","Slight Disagreement","Neither Agreement nor Disagreement"
"61","A29RCIFHRAZ797:3TEM0PF1Q635DUMHBBODNDK1BG80D5","1",3,1,1,"5","<p style=""font-size:100px""><b>B</b></p><p style=""position: absolute; top: 30px; right: 30px; text-align:right; font-size:50px"""">N = 1</p>","B",0,69,135.800000190735,0,"agree",16,16,15,15,16,"25","male","none","Strong Disagreement","Moderate Agreement","Neither Agreement nor Disagreement","Slight Agreement","Slight Agreement","Moderate Agreement","Moderate Agreement","Neither Agreement nor Disagreement","Slight Agreement","Moderate Agreement","Moderate Agreement","Slight Agreement","Slight Agreement","Moderate Agreement","Slight Disagreement","Neither Agreement nor Disagreement","Slight Disagreement","Neither Agreement nor Disagreement"
"62","A29RCIFHRAZ797:3TEM0PF1Q635DUMHBBODNDK1BG80D5","1",3,2,1,"5","<p style=""font-size:100px""><b>v</b></p><p style=""position: absolute; top: 30px; right: 30px; text-align:right; font-size:50px"""">N = 1</p>","v",0,73,234.799999952316,1,"agree",16,16,15,15,16,"25","male","none","Strong Disagreement","Moderate Agreement","Neither Agreement nor Disagreement","Slight Agreement","Slight Agreement","Moderate Agreement","Moderate Agreement","Neither Agreement nor Disagreement","Slight Agreement","Moderate Agreement","Moderate Agreement","Slight Agreement","Slight Agreement","Moderate Agreement","Slight Disagreement","Neither Agreement nor Disagreement","Slight Disagreement","Neither Agreement nor Disagreement"
"63","A29RCIFHRAZ797:3TEM0PF1Q635DUMHBBODNDK1BG80D5","1",3,3,1,"5","<p style=""font-size:100px""><b>D</b></p><p style=""position: absolute; top: 30px; right: 30px; text-align:right; font-size:50px"""">N = 1</p>","D",0,73,224.399999856949,1,"agree",16,16,15,15,16,"25","male","none","Strong Disagreement","Moderate Agreement","Neither Agreement nor Disagreement","Slight Agreement","Slight Agreement","Moderate Agreement","Moderate Agreement","Neither Agreement nor Disagreement","Slight Agreement","Moderate Agreement","Moderate Agreement","Slight Agreement","Slight Agreement","Moderate Agreement","Slight Disagreement","Neither Agreement nor Disagreement","Slight Disagreement","Neither Agreement nor Disagreement"
"64","A29RCIFHRAZ797:3TEM0PF1Q635DUMHBBODNDK1BG80D5","1",3,4,1,"5","<p style=""font-size:100px""><b>p</b></p><p style=""position: absolute; top: 30px; right: 30px; text-align:right; font-size:50px"""">N = 1</p>","p",0,69,202.799999952316,0,"agree",16,16,15,15,16,"25","male","none","Strong Disagreement","Moderate Agreement","Neither Agreement nor Disagreement","Slight Agreement","Slight Agreement","Moderate Agreement","Moderate Agreement","Neither Agreement nor Disagreement","Slight Agreement","Moderate Agreement","Moderate Agreement","Slight Agreement","Slight Agreement","Moderate Agreement","Slight Disagreement","Neither Agreement nor Disagreement","Slight Disagreement","Neither Agreement nor Disagreement"
"65","A29RCIFHRAZ797:3TEM0PF1Q635DUMHBBODNDK1BG80D5","1",3,5,1,"5","<p style=""font-size:100px""><b>g</b></p><p style=""position: absolute; top: 30px; right: 30px; text-align:right; font-size:50px"""">N = 1</p>","g",0,69,144.300000190735,0,"agree",16,16,15,15,16,"25","male","none","Strong Disagreement","Moderate Agreement","Neither Agreement nor Disagreement","Slight Agreement","Slight Agreement","Moderate Agreement","Moderate Agreement","Neither Agreement nor Disagreement","Slight Agreement","Moderate Agreement","Moderate Agreement","Slight Agreement","Slight Agreement","Moderate Agreement","Slight Disagreement","Neither Agreement nor Disagreement","Slight Disagreement","Neither Agreement nor Disagreement"
"66","A29RCIFHRAZ797:3TEM0PF1Q635DUMHBBODNDK1BG80D5","1",3,6,1,"5","<p style=""font-size:100px""><b>g</b></p><p style=""position: absolute; top: 30px; right: 30px; text-align:right; font-size:50px"""">N = 1</p>","g",0,73,211.799999952316,1,"agree",16,16,15,15,16,"25","male","none","Strong Disagreement","Moderate Agreement","Neither Agreement nor Disagreement","Slight Agreement","Slight Agreement","Moderate Agreement","Moderate Agreement","Neither Agreement nor Disagreement","Slight Agreement","Moderate Agreement","Moderate Agreement","Slight Agreement","Slight Agreement","Moderate Agreement","Slight Disagreement","Neither Agreement nor Disagreement","Slight Disagreement","Neither Agreement nor Disagreement"
"67","A29RCIFHRAZ797:3TEM0PF1Q635DUMHBBODNDK1BG80D5","1",3,7,1,"5","<p style=""font-size:100px""><b>d</b></p><p style=""position: absolute; top: 30px; right: 30px; text-align:right; font-size:50px"""">N = 1</p>","d",0,73,120.099999904633,1,"agree",16,16,15,15,16,"25","male","none","Strong Disagreement","Moderate Agreement","Neither Agreement nor Disagreement","Slight Agreement","Slight Agreement","Moderate Agreement","Moderate Agreement","Neither Agreement nor Disagreement","Slight Agreement","Moderate Agreement","Moderate Agreement","Slight Agreement","Slight Agreement","Moderate Agreement","Slight Disagreement","Neither Agreement nor Disagreement","Slight Disagreement","Neither Agreement nor Disagreement"
"68","A29RCIFHRAZ797:3TEM0PF1Q635DUMHBBODNDK1BG80D5","1",3,8,1,"5","<p style=""font-size:100px""><b>d</b></p><p style=""position: absolute; top: 30px; right: 30px; text-align:right; font-size:50px"""">N = 1</p>","d",0,69,83.5999999046326,0,"agree",16,16,15,15,16,"25","male","none","Strong Disagreement","Moderate Agreement","Neither Agreement nor Disagreement","Slight Agreement","Slight Agreement","Moderate Agreement","Moderate Agreement","Neither Agreement nor Disagreement","Slight Agreement","Moderate Agreement","Moderate Agreement","Slight Agreement","Slight Agreement","Moderate Agreement","Slight Disagreement","Neither Agreement nor Disagreement","Slight Disagreement","Neither Agreement nor Disagreement"
"69","A29RCIFHRAZ797:3TEM0PF1Q635DUMHBBODNDK1BG80D5","1",3,9,1,"5","<p style=""font-size:100px""><b>d</b></p><p style=""position: absolute; top: 30px; right: 30px; text-align:right; font-size:50px"""">N = 1</p>","d",0,73,64,1,"agree",16,16,15,15,16,"25","male","none","Strong Disagreement","Moderate Agreement","Neither Agreement nor Disagreement","Slight Agreement","Slight Agreement","Moderate Agreement","Moderate Agreement","Neither Agreement nor Disagreement","Slight Agreement","Moderate Agreement","Moderate Agreement","Slight Agreement","Slight Agreement","Moderate Agreement","Slight Disagreement","Neither Agreement nor Disagreement","Slight Disagreement","Neither Agreement nor Disagreement"
"70","A29RCIFHRAZ797:3TEM0PF1Q635DUMHBBODNDK1BG80D5","1",3,10,1,"5","<p style=""font-size:100px""><b>d</b></p><p style=""position: absolute; top: 30px; right: 30px; text-align:right; font-size:50px"""">N = 1</p>","d",0,69,289.200000047684,0,"agree",16,16,15,15,16,"25","male","none","Strong Disagreement","Moderate Agreement","Neither Agreement nor Disagreement","Slight Agreement","Slight Agreement","Moderate Agreement","Moderate Agreement","Neither Agreement nor Disagreement","Slight Agreement","Moderate Agreement","Moderate Agreement","Slight Agreement","Slight Agreement","Moderate Agreement","Slight Disagreement","Neither Agreement nor Disagreement","Slight Disagreement","Neither Agreement nor Disagreement"
"71","A29RCIFHRAZ797:3TEM0PF1Q635DUMHBBODNDK1BG80D5","1",3,11,1,"5","<p style=""font-size:100px""><b>p</b></p><p style=""position: absolute; top: 30px; right: 30px; text-align:right; font-size:50px"""">N = 1</p>","p",0,69,277.5,0,"agree",16,16,15,15,16,"25","male","none","Strong Disagreement","Moderate Agreement","Neither Agreement nor Disagreement","Slight Agreement","Slight Agreement","Moderate Agreement","Moderate Agreement","Neither Agreement nor Disagreement","Slight Agreement","Moderate Agreement","Moderate Agreement","Slight Agreement","Slight Agreement","Moderate Agreement","Slight Disagreement","Neither Agreement nor Disagreement","Slight Disagreement","Neither Agreement nor Disagreement"
"72","A29RCIFHRAZ797:3TEM0PF1Q635DUMHBBODNDK1BG80D5","1",3,12,1,"5","<p style=""font-size:100px""><b>v</b></p><p style=""position: absolute; top: 30px; right: 30px; text-align:right; font-size:50px"""">N = 1</p>","v",0,73,191.400000095367,1,"agree",16,16,15,15,16,"25","male","none","Strong Disagreement","Moderate Agreement","Neither Agreement nor Disagreement","Slight Agreement","Slight Agreement","Moderate Agreement","Moderate Agreement","Neither Agreement nor Disagreement","Slight Agreement","Moderate Agreement","Moderate Agreement","Slight Agreement","Slight Agreement","Moderate Agreement","Slight Disagreement","Neither Agreement nor Disagreement","Slight Disagreement","Neither Agreement nor Disagreement"
"73","A29RCIFHRAZ797:3TEM0PF1Q635DUMHBBODNDK1BG80D5","1",4,1,3,"5","<p style=""font-size:100px""><b>t</b></p><p style=""position: absolute; top: 30px; right: 30px; text-align:right; font-size:50px"""">N = 3</p>","t",0,73,242.299999952316,1,"agree",15,13,14,15,15,"25","male","none","Strong Disagreement","Moderate Agreement","Neither Agreement nor Disagreement","Slight Agreement","Slight Agreement","Moderate Agreement","Moderate Agreement","Neither Agreement nor Disagreement","Slight Agreement","Moderate Agreement","Moderate Agreement","Slight Agreement","Slight Agreement","Moderate Agreement","Slight Disagreement","Neither Agreement nor Disagreement","Slight Disagreement","Neither Agreement nor Disagreement"
"74","A29RCIFHRAZ797:3TEM0PF1Q635DUMHBBODNDK1BG80D5","1",4,2,3,"5","<p style=""font-size:100px""><b>G</b></p><p style=""position: absolute; top: 30px; right: 30px; text-align:right; font-size:50px"""">N = 3</p>","G",0,73,209.200000047684,1,"agree",15,13,14,15,15,"25","male","none","Strong Disagreement","Moderate Agreement","Neither Agreement nor Disagreement","Slight Agreement","Slight Agreement","Moderate Agreement","Moderate Agreement","Neither Agreement nor Disagreement","Slight Agreement","Moderate Agreement","Moderate Agreement","Slight Agreement","Slight Agreement","Moderate Agreement","Slight Disagreement","Neither Agreement nor Disagreement","Slight Disagreement","Neither Agreement nor Disagreement"
"75","A29RCIFHRAZ797:3TEM0PF1Q635DUMHBBODNDK1BG80D5","1",4,3,3,"5","<p style=""font-size:100px""><b>p</b></p><p style=""position: absolute; top: 30px; right: 30px; text-align:right; font-size:50px"""">N = 3</p>","p",0,69,256.299999952316,0,"agree",15,13,14,15,15,"25","male","none","Strong Disagreement","Moderate Agreement","Neither Agreement nor Disagreement","Slight Agreement","Slight Agreement","Moderate Agreement","Moderate Agreement","Neither Agreement nor Disagreement","Slight Agreement","Moderate Agreement","Moderate Agreement","Slight Agreement","Slight Agreement","Moderate Agreement","Slight Disagreement","Neither Agreement nor Disagreement","Slight Disagreement","Neither Agreement nor Disagreement"
"76","A29RCIFHRAZ797:3TEM0PF1Q635DUMHBBODNDK1BG80D5","1",4,4,3,"5","<p style=""font-size:100px""><b>t</b></p><p style=""position: absolute; top: 30px; right: 30px; text-align:right; font-size:50px"""">N = 3</p>","t",0,69,281.400000095367,0,"agree",15,13,14,15,15,"25","male","none","Strong Disagreement","Moderate Agreement","Neither Agreement nor Disagreement","Slight Agreement","Slight Agreement","Moderate Agreement","Moderate Agreement","Neither Agreement nor Disagreement","Slight Agreement","Moderate Agreement","Moderate Agreement","Slight Agreement","Slight Agreement","Moderate Agreement","Slight Disagreement","Neither Agreement nor Disagreement","Slight Disagreement","Neither Agreement nor Disagreement"
"77","A29RCIFHRAZ797:3TEM0PF1Q635DUMHBBODNDK1BG80D5","1",4,5,3,"5","<p style=""font-size:100px""><b>G</b></p><p style=""position: absolute; top: 30px; right: 30px; text-align:right; font-size:50px"""">N = 3</p>","G",0,73,218.899999856949,1,"agree",15,13,14,15,15,"25","male","none","Strong Disagreement","Moderate Agreement","Neither Agreement nor Disagreement","Slight Agreement","Slight Agreement","Moderate Agreement","Moderate Agreement","Neither Agreement nor Disagreement","Slight Agreement","Moderate Agreement","Moderate Agreement","Slight Agreement","Slight Agreement","Moderate Agreement","Slight Disagreement","Neither Agreement nor Disagreement","Slight Disagreement","Neither Agreement nor Disagreement"
"78","A29RCIFHRAZ797:3TEM0PF1Q635DUMHBBODNDK1BG80D5","1",4,6,3,"5","<p style=""font-size:100px""><b>b</b></p><p style=""position: absolute; top: 30px; right: 30px; text-align:right; font-size:50px"""">N = 3</p>","b",0,73,96.7999999523163,1,"agree",15,13,14,15,15,"25","male","none","Strong Disagreement","Moderate Agreement","Neither Agreement nor Disagreement","Slight Agreement","Slight Agreement","Moderate Agreement","Moderate Agreement","Neither Agreement nor Disagreement","Slight Agreement","Moderate Agreement","Moderate Agreement","Slight Agreement","Slight Agreement","Moderate Agreement","Slight Disagreement","Neither Agreement nor Disagreement","Slight Disagreement","Neither Agreement nor Disagreement"
"79","A29RCIFHRAZ797:3TEM0PF1Q635DUMHBBODNDK1BG80D5","1",4,7,3,"5","<p style=""font-size:100px""><b>g</b></p><p style=""position: absolute; top: 30px; right: 30px; text-align:right; font-size:50px"""">N = 3</p>","g",0,73,12.9000000953674,1,"agree",15,13,14,15,15,"25","male","none","Strong Disagreement","Moderate Agreement","Neither Agreement nor Disagreement","Slight Agreement","Slight Agreement","Moderate Agreement","Moderate Agreement","Neither Agreement nor Disagreement","Slight Agreement","Moderate Agreement","Moderate Agreement","Slight Agreement","Slight Agreement","Moderate Agreement","Slight Disagreement","Neither Agreement nor Disagreement","Slight Disagreement","Neither Agreement nor Disagreement"
"80","A29RCIFHRAZ797:3TEM0PF1Q635DUMHBBODNDK1BG80D5","1",4,8,3,"5","<p style=""font-size:100px""><b>d</b></p><p style=""position: absolute; top: 30px; right: 30px; text-align:right; font-size:50px"""">N = 3</p>","d",0,73,14.5999999046326,1,"agree",15,13,14,15,15,"25","male","none","Strong Disagreement","Moderate Agreement","Neither Agreement nor Disagreement","Slight Agreement","Slight Agreement","Moderate Agreement","Moderate Agreement","Neither Agreement nor Disagreement","Slight Agreement","Moderate Agreement","Moderate Agreement","Slight Agreement","Slight Agreement","Moderate Agreement","Slight Disagreement","Neither Agreement nor Disagreement","Slight Disagreement","Neither Agreement nor Disagreement"
"81","A29RCIFHRAZ797:3TEM0PF1Q635DUMHBBODNDK1BG80D5","1",4,9,3,"5","<p style=""font-size:100px""><b>G</b></p><p style=""position: absolute; top: 30px; right: 30px; text-align:right; font-size:50px"""">N = 3</p>","G",0,69,191.5,0,"agree",15,13,14,15,15,"25","male","none","Strong Disagreement","Moderate Agreement","Neither Agreement nor Disagreement","Slight Agreement","Slight Agreement","Moderate Agreement","Moderate Agreement","Neither Agreement nor Disagreement","Slight Agreement","Moderate Agreement","Moderate Agreement","Slight Agreement","Slight Agreement","Moderate Agreement","Slight Disagreement","Neither Agreement nor Disagreement","Slight Disagreement","Neither Agreement nor Disagreement"
"82","A29RCIFHRAZ797:3TEM0PF1Q635DUMHBBODNDK1BG80D5","1",4,10,3,"5","<p style=""font-size:100px""><b>b</b></p><p style=""position: absolute; top: 30px; right: 30px; text-align:right; font-size:50px"""">N = 3</p>","b",0,73,136.600000143051,1,"agree",15,13,14,15,15,"25","male","none","Strong Disagreement","Moderate Agreement","Neither Agreement nor Disagreement","Slight Agreement","Slight Agreement","Moderate Agreement","Moderate Agreement","Neither Agreement nor Disagreement","Slight Agreement","Moderate Agreement","Moderate Agreement","Slight Agreement","Slight Agreement","Moderate Agreement","Slight Disagreement","Neither Agreement nor Disagreement","Slight Disagreement","Neither Agreement nor Disagreement"
"83","A29RCIFHRAZ797:3TEM0PF1Q635DUMHBBODNDK1BG80D5","1",4,11,3,"5","<p style=""font-size:100px""><b>d</b></p><p style=""position: absolute; top: 30px; right: 30px; text-align:right; font-size:50px"""">N = 3</p>","d",0,73,8.59999990463257,1,"agree",15,13,14,15,15,"25","male","none","Strong Disagreement","Moderate Agreement","Neither Agreement nor Disagreement","Slight Agreement","Slight Agreement","Moderate Agreement","Moderate Agreement","Neither Agreement nor Disagreement","Slight Agreement","Moderate Agreement","Moderate Agreement","Slight Agreement","Slight Agreement","Moderate Agreement","Slight Disagreement","Neither Agreement nor Disagreement","Slight Disagreement","Neither Agreement nor Disagreement"
"84","A29RCIFHRAZ797:3TEM0PF1Q635DUMHBBODNDK1BG80D5","1",4,12,3,"5","<p style=""font-size:100px""><b>G</b></p><p style=""position: absolute; top: 30px; right: 30px; text-align:right; font-size:50px"""">N = 3</p>","G",0,69,65.3999998569489,0,"agree",15,13,14,15,15,"25","male","none","Strong Disagreement","Moderate Agreement","Neither Agreement nor Disagreement","Slight Agreement","Slight Agreement","Moderate Agreement","Moderate Agreement","Neither Agreement nor Disagreement","Slight Agreement","Moderate Agreement","Moderate Agreement","Slight Agreement","Slight Agreement","Moderate Agreement","Slight Disagreement","Neither Agreement nor Disagreement","Slight Disagreement","Neither Agreement nor Disagreement"
"85","A29RCIFHRAZ797:3TEM0PF1Q635DUMHBBODNDK1BG80D5","1",5,1,2,"50","<p style=""font-size:100px""><b>P</b></p><p style=""position: absolute; top: 30px; right: 30px; text-align:right; font-size:50px"""">N = 2</p>","P",0,NA,NA,0,"agree",15,14,15,15,15,"25","male","none","Strong Disagreement","Moderate Agreement","Neither Agreement nor Disagreement","Slight Agreement","Slight Agreement","Moderate Agreement","Moderate Agreement","Neither Agreement nor Disagreement","Slight Agreement","Moderate Agreement","Moderate Agreement","Slight Agreement","Slight Agreement","Moderate Agreement","Slight Disagreement","Neither Agreement nor Disagreement","Slight Disagreement","Neither Agreement nor Disagreement"
"86","A29RCIFHRAZ797:3TEM0PF1Q635DUMHBBODNDK1BG80D5","1",5,2,2,"50","<p style=""font-size:100px""><b>t</b></p><p style=""position: absolute; top: 30px; right: 30px; text-align:right; font-size:50px"""">N = 2</p>","t",0,69,167.899999856949,0,"agree",15,14,15,15,15,"25","male","none","Strong Disagreement","Moderate Agreement","Neither Agreement nor Disagreement","Slight Agreement","Slight Agreement","Moderate Agreement","Moderate Agreement","Neither Agreement nor Disagreement","Slight Agreement","Moderate Agreement","Moderate Agreement","Slight Agreement","Slight Agreement","Moderate Agreement","Slight Disagreement","Neither Agreement nor Disagreement","Slight Disagreement","Neither Agreement nor Disagreement"
"87","A29RCIFHRAZ797:3TEM0PF1Q635DUMHBBODNDK1BG80D5","1",5,3,2,"50","<p style=""font-size:100px""><b>v</b></p><p style=""position: absolute; top: 30px; right: 30px; text-align:right; font-size:50px"""">N = 2</p>","v",0,69,825.5,0,"agree",15,14,15,15,15,"25","male","none","Strong Disagreement","Moderate Agreement","Neither Agreement nor Disagreement","Slight Agreement","Slight Agreement","Moderate Agreement","Moderate Agreement","Neither Agreement nor Disagreement","Slight Agreement","Moderate Agreement","Moderate Agreement","Slight Agreement","Slight Agreement","Moderate Agreement","Slight Disagreement","Neither Agreement nor Disagreement","Slight Disagreement","Neither Agreement nor Disagreement"
"88","A29RCIFHRAZ797:3TEM0PF1Q635DUMHBBODNDK1BG80D5","1",5,4,2,"50","<p style=""font-size:100px""><b>t</b></p><p style=""position: absolute; top: 30px; right: 30px; text-align:right; font-size:50px"""">N = 2</p>","t",0,69,219.299999952316,0,"agree",15,14,15,15,15,"25","male","none","Strong Disagreement","Moderate Agreement","Neither Agreement nor Disagreement","Slight Agreement","Slight Agreement","Moderate Agreement","Moderate Agreement","Neither Agreement nor Disagreement","Slight Agreement","Moderate Agreement","Moderate Agreement","Slight Agreement","Slight Agreement","Moderate Agreement","Slight Disagreement","Neither Agreement nor Disagreement","Slight Disagreement","Neither Agreement nor Disagreement"
"89","A29RCIFHRAZ797:3TEM0PF1Q635DUMHBBODNDK1BG80D5","1",5,5,2,"50","<p style=""font-size:100px""><b>g</b></p><p style=""position: absolute; top: 30px; right: 30px; text-align:right; font-size:50px"""">N = 2</p>","g",0,73,280.299999952316,1,"agree",15,14,15,15,15,"25","male","none","Strong Disagreement","Moderate Agreement","Neither Agreement nor Disagreement","Slight Agreement","Slight Agreement","Moderate Agreement","Moderate Agreement","Neither Agreement nor Disagreement","Slight Agreement","Moderate Agreement","Moderate Agreement","Slight Agreement","Slight Agreement","Moderate Agreement","Slight Disagreement","Neither Agreement nor Disagreement","Slight Disagreement","Neither Agreement nor Disagreement"
"90","A29RCIFHRAZ797:3TEM0PF1Q635DUMHBBODNDK1BG80D5","1",5,6,2,"50","<p style=""font-size:100px""><b>v</b></p><p style=""position: absolute; top: 30px; right: 30px; text-align:right; font-size:50px"""">N = 2</p>","v",0,73,248.400000095367,1,"agree",15,14,15,15,15,"25","male","none","Strong Disagreement","Moderate Agreement","Neither Agreement nor Disagreement","Slight Agreement","Slight Agreement","Moderate Agreement","Moderate Agreement","Neither Agreement nor Disagreement","Slight Agreement","Moderate Agreement","Moderate Agreement","Slight Agreement","Slight Agreement","Moderate Agreement","Slight Disagreement","Neither Agreement nor Disagreement","Slight Disagreement","Neither Agreement nor Disagreement"
"91","A29RCIFHRAZ797:3TEM0PF1Q635DUMHBBODNDK1BG80D5","1",5,7,2,"50","<p style=""font-size:100px""><b>g</b></p><p style=""position: absolute; top: 30px; right: 30px; text-align:right; font-size:50px"""">N = 2</p>","g",0,73,288.799999952316,1,"agree",15,14,15,15,15,"25","male","none","Strong Disagreement","Moderate Agreement","Neither Agreement nor Disagreement","Slight Agreement","Slight Agreement","Moderate Agreement","Moderate Agreement","Neither Agreement nor Disagreement","Slight Agreement","Moderate Agreement","Moderate Agreement","Slight Agreement","Slight Agreement","Moderate Agreement","Slight Disagreement","Neither Agreement nor Disagreement","Slight Disagreement","Neither Agreement nor Disagreement"
"92","A29RCIFHRAZ797:3TEM0PF1Q635DUMHBBODNDK1BG80D5","1",5,8,2,"50","<p style=""font-size:100px""><b>v</b></p><p style=""position: absolute; top: 30px; right: 30px; text-align:right; font-size:50px"""">N = 2</p>","v",0,69,166.399999856949,0,"agree",15,14,15,15,15,"25","male","none","Strong Disagreement","Moderate Agreement","Neither Agreement nor Disagreement","Slight Agreement","Slight Agreement","Moderate Agreement","Moderate Agreement","Neither Agreement nor Disagreement","Slight Agreement","Moderate Agreement","Moderate Agreement","Slight Agreement","Slight Agreement","Moderate Agreement","Slight Disagreement","Neither Agreement nor Disagreement","Slight Disagreement","Neither Agreement nor Disagreement"
"93","A29RCIFHRAZ797:3TEM0PF1Q635DUMHBBODNDK1BG80D5","1",5,9,2,"50","<p style=""font-size:100px""><b>t</b></p><p style=""position: absolute; top: 30px; right: 30px; text-align:right; font-size:50px"""">N = 2</p>","t",0,69,169.900000095367,0,"agree",15,14,15,15,15,"25","male","none","Strong Disagreement","Moderate Agreement","Neither Agreement nor Disagreement","Slight Agreement","Slight Agreement","Moderate Agreement","Moderate Agreement","Neither Agreement nor Disagreement","Slight Agreement","Moderate Agreement","Moderate Agreement","Slight Agreement","Slight Agreement","Moderate Agreement","Slight Disagreement","Neither Agreement nor Disagreement","Slight Disagreement","Neither Agreement nor Disagreement"
"94","A29RCIFHRAZ797:3TEM0PF1Q635DUMHBBODNDK1BG80D5","1",5,10,2,"50","<p style=""font-size:100px""><b>d</b></p><p style=""position: absolute; top: 30px; right: 30px; text-align:right; font-size:50px"""">N = 2</p>","d",0,73,146.5,1,"agree",15,14,15,15,15,"25","male","none","Strong Disagreement","Moderate Agreement","Neither Agreement nor Disagreement","Slight Agreement","Slight Agreement","Moderate Agreement","Moderate Agreement","Neither Agreement nor Disagreement","Slight Agreement","Moderate Agreement","Moderate Agreement","Slight Agreement","Slight Agreement","Moderate Agreement","Slight Disagreement","Neither Agreement nor Disagreement","Slight Disagreement","Neither Agreement nor Disagreement"
"95","A29RCIFHRAZ797:3TEM0PF1Q635DUMHBBODNDK1BG80D5","1",5,11,2,"50","<p style=""font-size:100px""><b>t</b></p><p style=""position: absolute; top: 30px; right: 30px; text-align:right; font-size:50px"""">N = 2</p>","t",0,69,182.299999952316,0,"agree",15,14,15,15,15,"25","male","none","Strong Disagreement","Moderate Agreement","Neither Agreement nor Disagreement","Slight Agreement","Slight Agreement","Moderate Agreement","Moderate Agreement","Neither Agreement nor Disagreement","Slight Agreement","Moderate Agreement","Moderate Agreement","Slight Agreement","Slight Agreement","Moderate Agreement","Slight Disagreement","Neither Agreement nor Disagreement","Slight Disagreement","Neither Agreement nor Disagreement"
"96","A29RCIFHRAZ797:3TEM0PF1Q635DUMHBBODNDK1BG80D5","1",5,12,2,"50","<p style=""font-size:100px""><b>V</b></p><p style=""position: absolute; top: 30px; right: 30px; text-align:right; font-size:50px"""">N = 2</p>","V",0,69,40.1999998092651,0,"agree",15,14,15,15,15,"25","male","none","Strong Disagreement","Moderate Agreement","Neither Agreement nor Disagreement","Slight Agreement","Slight Agreement","Moderate Agreement","Moderate Agreement","Neither Agreement nor Disagreement","Slight Agreement","Moderate Agreement","Moderate Agreement","Slight Agreement","Slight Agreement","Moderate Agreement","Slight Disagreement","Neither Agreement nor Disagreement","Slight Disagreement","Neither Agreement nor Disagreement"
"97","A29RCIFHRAZ797:3TEM0PF1Q635DUMHBBODNDK1BG80D5","1",6,1,2,"5","<p style=""font-size:100px""><b>g</b></p><p style=""position: absolute; top: 30px; right: 30px; text-align:right; font-size:50px"""">N = 2</p>","g",0,73,78.4000000953674,1,"agree",14,15,14,15,13,"25","male","none","Strong Disagreement","Moderate Agreement","Neither Agreement nor Disagreement","Slight Agreement","Slight Agreement","Moderate Agreement","Moderate Agreement","Neither Agreement nor Disagreement","Slight Agreement","Moderate Agreement","Moderate Agreement","Slight Agreement","Slight Agreement","Moderate Agreement","Slight Disagreement","Neither Agreement nor Disagreement","Slight Disagreement","Neither Agreement nor Disagreement"
"98","A29RCIFHRAZ797:3TEM0PF1Q635DUMHBBODNDK1BG80D5","1",6,2,2,"5","<p style=""font-size:100px""><b>B</b></p><p style=""position: absolute; top: 30px; right: 30px; text-align:right; font-size:50px"""">N = 2</p>","B",0,69,202.200000047684,0,"agree",14,15,14,15,13,"25","male","none","Strong Disagreement","Moderate Agreement","Neither Agreement nor Disagreement","Slight Agreement","Slight Agreement","Moderate Agreement","Moderate Agreement","Neither Agreement nor Disagreement","Slight Agreement","Moderate Agreement","Moderate Agreement","Slight Agreement","Slight Agreement","Moderate Agreement","Slight Disagreement","Neither Agreement nor Disagreement","Slight Disagreement","Neither Agreement nor Disagreement"
"99","A29RCIFHRAZ797:3TEM0PF1Q635DUMHBBODNDK1BG80D5","1",6,3,2,"5","<p style=""font-size:100px""><b>g</b></p><p style=""position: absolute; top: 30px; right: 30px; text-align:right; font-size:50px"""">N = 2</p>","g",0,69,191,0,"agree",14,15,14,15,13,"25","male","none","Strong Disagreement","Moderate Agreement","Neither Agreement nor Disagreement","Slight Agreement","Slight Agreement","Moderate Agreement","Moderate Agreement","Neither Agreement nor Disagreement","Slight Agreement","Moderate Agreement","Moderate Agreement","Slight Agreement","Slight Agreement","Moderate Agreement","Slight Disagreement","Neither Agreement nor Disagreement","Slight Disagreement","Neither Agreement nor Disagreement"
"100","A29RCIFHRAZ797:3TEM0PF1Q635DUMHBBODNDK1BG80D5","1",6,4,2,"5","<p style=""font-size:100px""><b>G</b></p><p style=""position: absolute; top: 30px; right: 30px; text-align:right; font-size:50px"""">N = 2</p>","G",0,69,169.899999856949,0,"agree",14,15,14,15,13,"25","male","none","Strong Disagreement","Moderate Agreement","Neither Agreement nor Disagreement","Slight Agreement","Slight Agreement","Moderate Agreement","Moderate Agreement","Neither Agreement nor Disagreement","Slight Agreement","Moderate Agreement","Moderate Agreement","Slight Agreement","Slight Agreement","Moderate Agreement","Slight Disagreement","Neither Agreement nor Disagreement","Slight Disagreement","Neither Agreement nor Disagreement"
"101","A29RCIFHRAZ797:3TEM0PF1Q635DUMHBBODNDK1BG80D5","1",6,5,2,"5","<p style=""font-size:100px""><b>g</b></p><p style=""position: absolute; top: 30px; right: 30px; text-align:right; font-size:50px"""">N = 2</p>","g",0,73,153.300000190735,1,"agree",14,15,14,15,13,"25","male","none","Strong Disagreement","Moderate Agreement","Neither Agreement nor Disagreement","Slight Agreement","Slight Agreement","Moderate Agreement","Moderate Agreement","Neither Agreement nor Disagreement","Slight Agreement","Moderate Agreement","Moderate Agreement","Slight Agreement","Slight Agreement","Moderate Agreement","Slight Disagreement","Neither Agreement nor Disagreement","Slight Disagreement","Neither Agreement nor Disagreement"
"102","A29RCIFHRAZ797:3TEM0PF1Q635DUMHBBODNDK1BG80D5","1",6,6,2,"5","<p style=""font-size:100px""><b>p</b></p><p style=""position: absolute; top: 30px; right: 30px; text-align:right; font-size:50px"""">N = 2</p>","p",0,69,293.699999809265,0,"agree",14,15,14,15,13,"25","male","none","Strong Disagreement","Moderate Agreement","Neither Agreement nor Disagreement","Slight Agreement","Slight Agreement","Moderate Agreement","Moderate Agreement","Neither Agreement nor Disagreement","Slight Agreement","Moderate Agreement","Moderate Agreement","Slight Agreement","Slight Agreement","Moderate Agreement","Slight Disagreement","Neither Agreement nor Disagreement","Slight Disagreement","Neither Agreement nor Disagreement"
"103","A29RCIFHRAZ797:3TEM0PF1Q635DUMHBBODNDK1BG80D5","1",6,7,2,"5","<p style=""font-size:100px""><b>g</b></p><p style=""position: absolute; top: 30px; right: 30px; text-align:right; font-size:50px"""">N = 2</p>","g",0,69,139.5,0,"agree",14,15,14,15,13,"25","male","none","Strong Disagreement","Moderate Agreement","Neither Agreement nor Disagreement","Slight Agreement","Slight Agreement","Moderate Agreement","Moderate Agreement","Neither Agreement nor Disagreement","Slight Agreement","Moderate Agreement","Moderate Agreement","Slight Agreement","Slight Agreement","Moderate Agreement","Slight Disagreement","Neither Agreement nor Disagreement","Slight Disagreement","Neither Agreement nor Disagreement"
"104","A29RCIFHRAZ797:3TEM0PF1Q635DUMHBBODNDK1BG80D5","1",6,8,2,"5","<p style=""font-size:100px""><b>B</b></p><p style=""position: absolute; top: 30px; right: 30px; text-align:right; font-size:50px"""">N = 2</p>","B",0,73,146.599999904633,1,"agree",14,15,14,15,13,"25","male","none","Strong Disagreement","Moderate Agreement","Neither Agreement nor Disagreement","Slight Agreement","Slight Agreement","Moderate Agreement","Moderate Agreement","Neither Agreement nor Disagreement","Slight Agreement","Moderate Agreement","Moderate Agreement","Slight Agreement","Slight Agreement","Moderate Agreement","Slight Disagreement","Neither Agreement nor Disagreement","Slight Disagreement","Neither Agreement nor Disagreement"
"105","A29RCIFHRAZ797:3TEM0PF1Q635DUMHBBODNDK1BG80D5","1",6,9,2,"5","<p style=""font-size:100px""><b>P</b></p><p style=""position: absolute; top: 30px; right: 30px; text-align:right; font-size:50px"""">N = 2</p>","P",0,73,158.100000143051,1,"agree",14,15,14,15,13,"25","male","none","Strong Disagreement","Moderate Agreement","Neither Agreement nor Disagreement","Slight Agreement","Slight Agreement","Moderate Agreement","Moderate Agreement","Neither Agreement nor Disagreement","Slight Agreement","Moderate Agreement","Moderate Agreement","Slight Agreement","Slight Agreement","Moderate Agreement","Slight Disagreement","Neither Agreement nor Disagreement","Slight Disagreement","Neither Agreement nor Disagreement"
"106","A29RCIFHRAZ797:3TEM0PF1Q635DUMHBBODNDK1BG80D5","1",6,10,2,"5","<p style=""font-size:100px""><b>B</b></p><p style=""position: absolute; top: 30px; right: 30px; text-align:right; font-size:50px"""">N = 2</p>","B",0,73,141,1,"agree",14,15,14,15,13,"25","male","none","Strong Disagreement","Moderate Agreement","Neither Agreement nor Disagreement","Slight Agreement","Slight Agreement","Moderate Agreement","Moderate Agreement","Neither Agreement nor Disagreement","Slight Agreement","Moderate Agreement","Moderate Agreement","Slight Agreement","Slight Agreement","Moderate Agreement","Slight Disagreement","Neither Agreement nor Disagreement","Slight Disagreement","Neither Agreement nor Disagreement"
"107","A29RCIFHRAZ797:3TEM0PF1Q635DUMHBBODNDK1BG80D5","1",6,11,2,"5","<p style=""font-size:100px""><b>b</b></p><p style=""position: absolute; top: 30px; right: 30px; text-align:right; font-size:50px"""">N = 2</p>","b",0,69,27.4000000953674,0,"agree",14,15,14,15,13,"25","male","none","Strong Disagreement","Moderate Agreement","Neither Agreement nor Disagreement","Slight Agreement","Slight Agreement","Moderate Agreement","Moderate Agreement","Neither Agreement nor Disagreement","Slight Agreement","Moderate Agreement","Moderate Agreement","Slight Agreement","Slight Agreement","Moderate Agreement","Slight Disagreement","Neither Agreement nor Disagreement","Slight Disagreement","Neither Agreement nor Disagreement"
"108","A29RCIFHRAZ797:3TEM0PF1Q635DUMHBBODNDK1BG80D5","1",6,12,2,"5","<p style=""font-size:100px""><b>g</b></p><p style=""position: absolute; top: 30px; right: 30px; text-align:right; font-size:50px"""">N = 2</p>","g",0,69,303.899999856949,0,"agree",14,15,14,15,13,"25","male","none","Strong Disagreement","Moderate Agreement","Neither Agreement nor Disagreement","Slight Agreement","Slight Agreement","Moderate Agreement","Moderate Agreement","Neither Agreement nor Disagreement","Slight Agreement","Moderate Agreement","Moderate Agreement","Slight Agreement","Slight Agreement","Moderate Agreement","Slight Disagreement","Neither Agreement nor Disagreement","Slight Disagreement","Neither Agreement nor Disagreement"
"109","A29RCIFHRAZ797:3TEM0PF1Q635DUMHBBODNDK1BG80D5","2",7,1,3,"50","<p style=""font-size:100px""><b>v</b></p><p style=""position: absolute; top: 30px; right: 30px; text-align:right; font-size:50px"""">N = 3</p>","v",0,69,10.8999998569489,0,"agree",15,15,14,14,13,"25","male","none","Strong Disagreement","Moderate Agreement","Neither Agreement nor Disagreement","Slight Agreement","Slight Agreement","Moderate Agreement","Moderate Agreement","Neither Agreement nor Disagreement","Slight Agreement","Moderate Agreement","Moderate Agreement","Slight Agreement","Slight Agreement","Moderate Agreement","Slight Disagreement","Neither Agreement nor Disagreement","Slight Disagreement","Neither Agreement nor Disagreement"
"110","A29RCIFHRAZ797:3TEM0PF1Q635DUMHBBODNDK1BG80D5","2",7,2,3,"50","<p style=""font-size:100px""><b>P</b></p><p style=""position: absolute; top: 30px; right: 30px; text-align:right; font-size:50px"""">N = 3</p>","P",0,73,215.299999952316,1,"agree",15,15,14,14,13,"25","male","none","Strong Disagreement","Moderate Agreement","Neither Agreement nor Disagreement","Slight Agreement","Slight Agreement","Moderate Agreement","Moderate Agreement","Neither Agreement nor Disagreement","Slight Agreement","Moderate Agreement","Moderate Agreement","Slight Agreement","Slight Agreement","Moderate Agreement","Slight Disagreement","Neither Agreement nor Disagreement","Slight Disagreement","Neither Agreement nor Disagreement"
"111","A29RCIFHRAZ797:3TEM0PF1Q635DUMHBBODNDK1BG80D5","2",7,3,3,"50","<p style=""font-size:100px""><b>B</b></p><p style=""position: absolute; top: 30px; right: 30px; text-align:right; font-size:50px"""">N = 3</p>","B",0,73,179.700000047684,1,"agree",15,15,14,14,13,"25","male","none","Strong Disagreement","Moderate Agreement","Neither Agreement nor Disagreement","Slight Agreement","Slight Agreement","Moderate Agreement","Moderate Agreement","Neither Agreement nor Disagreement","Slight Agreement","Moderate Agreement","Moderate Agreement","Slight Agreement","Slight Agreement","Moderate Agreement","Slight Disagreement","Neither Agreement nor Disagreement","Slight Disagreement","Neither Agreement nor Disagreement"
"112","A29RCIFHRAZ797:3TEM0PF1Q635DUMHBBODNDK1BG80D5","2",7,4,3,"50","<p style=""font-size:100px""><b>v</b></p><p style=""position: absolute; top: 30px; right: 30px; text-align:right; font-size:50px"""">N = 3</p>","v",0,73,202.700000047684,1,"agree",15,15,14,14,13,"25","male","none","Strong Disagreement","Moderate Agreement","Neither Agreement nor Disagreement","Slight Agreement","Slight Agreement","Moderate Agreement","Moderate Agreement","Neither Agreement nor Disagreement","Slight Agreement","Moderate Agreement","Moderate Agreement","Slight Agreement","Slight Agreement","Moderate Agreement","Slight Disagreement","Neither Agreement nor Disagreement","Slight Disagreement","Neither Agreement nor Disagreement"
"113","A29RCIFHRAZ797:3TEM0PF1Q635DUMHBBODNDK1BG80D5","2",7,5,3,"50","<p style=""font-size:100px""><b>t</b></p><p style=""position: absolute; top: 30px; right: 30px; text-align:right; font-size:50px"""">N = 3</p>","t",0,69,332.600000143051,0,"agree",15,15,14,14,13,"25","male","none","Strong Disagreement","Moderate Agreement","Neither Agreement nor Disagreement","Slight Agreement","Slight Agreement","Moderate Agreement","Moderate Agreement","Neither Agreement nor Disagreement","Slight Agreement","Moderate Agreement","Moderate Agreement","Slight Agreement","Slight Agreement","Moderate Agreement","Slight Disagreement","Neither Agreement nor Disagreement","Slight Disagreement","Neither Agreement nor Disagreement"
"114","A29RCIFHRAZ797:3TEM0PF1Q635DUMHBBODNDK1BG80D5","2",7,6,3,"50","<p style=""font-size:100px""><b>v</b></p><p style=""position: absolute; top: 30px; right: 30px; text-align:right; font-size:50px"""">N = 3</p>","v",0,73,318.200000047684,1,"agree",15,15,14,14,13,"25","male","none","Strong Disagreement","Moderate Agreement","Neither Agreement nor Disagreement","Slight Agreement","Slight Agreement","Moderate Agreement","Moderate Agreement","Neither Agreement nor Disagreement","Slight Agreement","Moderate Agreement","Moderate Agreement","Slight Agreement","Slight Agreement","Moderate Agreement","Slight Disagreement","Neither Agreement nor Disagreement","Slight Disagreement","Neither Agreement nor Disagreement"
"115","A29RCIFHRAZ797:3TEM0PF1Q635DUMHBBODNDK1BG80D5","2",7,7,3,"50","<p style=""font-size:100px""><b>b</b></p><p style=""position: absolute; top: 30px; right: 30px; text-align:right; font-size:50px"""">N = 3</p>","b",0,73,286.599999904633,1,"agree",15,15,14,14,13,"25","male","none","Strong Disagreement","Moderate Agreement","Neither Agreement nor Disagreement","Slight Agreement","Slight Agreement","Moderate Agreement","Moderate Agreement","Neither Agreement nor Disagreement","Slight Agreement","Moderate Agreement","Moderate Agreement","Slight Agreement","Slight Agreement","Moderate Agreement","Slight Disagreement","Neither Agreement nor Disagreement","Slight Disagreement","Neither Agreement nor Disagreement"
"116","A29RCIFHRAZ797:3TEM0PF1Q635DUMHBBODNDK1BG80D5","2",7,8,3,"50","<p style=""font-size:100px""><b>P</b></p><p style=""position: absolute; top: 30px; right: 30px; text-align:right; font-size:50px"""">N = 3</p>","P",0,73,418.800000190735,1,"agree",15,15,14,14,13,"25","male","none","Strong Disagreement","Moderate Agreement","Neither Agreement nor Disagreement","Slight Agreement","Slight Agreement","Moderate Agreement","Moderate Agreement","Neither Agreement nor Disagreement","Slight Agreement","Moderate Agreement","Moderate Agreement","Slight Agreement","Slight Agreement","Moderate Agreement","Slight Disagreement","Neither Agreement nor Disagreement","Slight Disagreement","Neither Agreement nor Disagreement"
"117","A29RCIFHRAZ797:3TEM0PF1Q635DUMHBBODNDK1BG80D5","2",7,9,3,"50","<p style=""font-size:100px""><b>v</b></p><p style=""position: absolute; top: 30px; right: 30px; text-align:right; font-size:50px"""">N = 3</p>","v",0,69,314.600000143051,0,"agree",15,15,14,14,13,"25","male","none","Strong Disagreement","Moderate Agreement","Neither Agreement nor Disagreement","Slight Agreement","Slight Agreement","Moderate Agreement","Moderate Agreement","Neither Agreement nor Disagreement","Slight Agreement","Moderate Agreement","Moderate Agreement","Slight Agreement","Slight Agreement","Moderate Agreement","Slight Disagreement","Neither Agreement nor Disagreement","Slight Disagreement","Neither Agreement nor Disagreement"
"118","A29RCIFHRAZ797:3TEM0PF1Q635DUMHBBODNDK1BG80D5","2",7,10,3,"50","<p style=""font-size:100px""><b>b</b></p><p style=""position: absolute; top: 30px; right: 30px; text-align:right; font-size:50px"""">N = 3</p>","b",0,73,370.400000095367,1,"agree",15,15,14,14,13,"25","male","none","Strong Disagreement","Moderate Agreement","Neither Agreement nor Disagreement","Slight Agreement","Slight Agreement","Moderate Agreement","Moderate Agreement","Neither Agreement nor Disagreement","Slight Agreement","Moderate Agreement","Moderate Agreement","Slight Agreement","Slight Agreement","Moderate Agreement","Slight Disagreement","Neither Agreement nor Disagreement","Slight Disagreement","Neither Agreement nor Disagreement"
"119","A29RCIFHRAZ797:3TEM0PF1Q635DUMHBBODNDK1BG80D5","2",7,11,3,"50","<p style=""font-size:100px""><b>P</b></p><p style=""position: absolute; top: 30px; right: 30px; text-align:right; font-size:50px"""">N = 3</p>","P",0,69,292.099999904633,0,"agree",15,15,14,14,13,"25","male","none","Strong Disagreement","Moderate Agreement","Neither Agreement nor Disagreement","Slight Agreement","Slight Agreement","Moderate Agreement","Moderate Agreement","Neither Agreement nor Disagreement","Slight Agreement","Moderate Agreement","Moderate Agreement","Slight Agreement","Slight Agreement","Moderate Agreement","Slight Disagreement","Neither Agreement nor Disagreement","Slight Disagreement","Neither Agreement nor Disagreement"
"120","A29RCIFHRAZ797:3TEM0PF1Q635DUMHBBODNDK1BG80D5","2",7,12,3,"50","<p style=""font-size:100px""><b>P</b></p><p style=""position: absolute; top: 30px; right: 30px; text-align:right; font-size:50px"""">N = 3</p>","P",0,69,304.600000143051,0,"agree",15,15,14,14,13,"25","male","none","Strong Disagreement","Moderate Agreement","Neither Agreement nor Disagreement","Slight Agreement","Slight Agreement","Moderate Agreement","Moderate Agreement","Neither Agreement nor Disagreement","Slight Agreement","Moderate Agreement","Moderate Agreement","Slight Agreement","Slight Agreement","Moderate Agreement","Slight Disagreement","Neither Agreement nor Disagreement","Slight Disagreement","Neither Agreement nor Disagreement"
"121","A29RCIFHRAZ797:3TEM0PF1Q635DUMHBBODNDK1BG80D5","2",8,1,2,"50","<p style=""font-size:100px""><b>P</b></p><p style=""position: absolute; top: 30px; right: 30px; text-align:right; font-size:50px"""">N = 2</p>","P",0,69,364.200000047684,0,"agree",17,17,16,15,16,"25","male","none","Strong Disagreement","Moderate Agreement","Neither Agreement nor Disagreement","Slight Agreement","Slight Agreement","Moderate Agreement","Moderate Agreement","Neither Agreement nor Disagreement","Slight Agreement","Moderate Agreement","Moderate Agreement","Slight Agreement","Slight Agreement","Moderate Agreement","Slight Disagreement","Neither Agreement nor Disagreement","Slight Disagreement","Neither Agreement nor Disagreement"
"122","A29RCIFHRAZ797:3TEM0PF1Q635DUMHBBODNDK1BG80D5","2",8,2,2,"50","<p style=""font-size:100px""><b>d</b></p><p style=""position: absolute; top: 30px; right: 30px; text-align:right; font-size:50px"""">N = 2</p>","d",0,69,218.200000047684,0,"agree",17,17,16,15,16,"25","male","none","Strong Disagreement","Moderate Agreement","Neither Agreement nor Disagreement","Slight Agreement","Slight Agreement","Moderate Agreement","Moderate Agreement","Neither Agreement nor Disagreement","Slight Agreement","Moderate Agreement","Moderate Agreement","Slight Agreement","Slight Agreement","Moderate Agreement","Slight Disagreement","Neither Agreement nor Disagreement","Slight Disagreement","Neither Agreement nor Disagreement"
"123","A29RCIFHRAZ797:3TEM0PF1Q635DUMHBBODNDK1BG80D5","2",8,3,2,"50","<p style=""font-size:100px""><b>g</b></p><p style=""position: absolute; top: 30px; right: 30px; text-align:right; font-size:50px"""">N = 2</p>","g",0,69,326.400000095367,0,"agree",17,17,16,15,16,"25","male","none","Strong Disagreement","Moderate Agreement","Neither Agreement nor Disagreement","Slight Agreement","Slight Agreement","Moderate Agreement","Moderate Agreement","Neither Agreement nor Disagreement","Slight Agreement","Moderate Agreement","Moderate Agreement","Slight Agreement","Slight Agreement","Moderate Agreement","Slight Disagreement","Neither Agreement nor Disagreement","Slight Disagreement","Neither Agreement nor Disagreement"
"124","A29RCIFHRAZ797:3TEM0PF1Q635DUMHBBODNDK1BG80D5","2",8,4,2,"50","<p style=""font-size:100px""><b>d</b></p><p style=""position: absolute; top: 30px; right: 30px; text-align:right; font-size:50px"""">N = 2</p>","d",0,69,355.700000047684,0,"agree",17,17,16,15,16,"25","male","none","Strong Disagreement","Moderate Agreement","Neither Agreement nor Disagreement","Slight Agreement","Slight Agreement","Moderate Agreement","Moderate Agreement","Neither Agreement nor Disagreement","Slight Agreement","Moderate Agreement","Moderate Agreement","Slight Agreement","Slight Agreement","Moderate Agreement","Slight Disagreement","Neither Agreement nor Disagreement","Slight Disagreement","Neither Agreement nor Disagreement"
"125","A29RCIFHRAZ797:3TEM0PF1Q635DUMHBBODNDK1BG80D5","2",8,5,2,"50","<p style=""font-size:100px""><b>g</b></p><p style=""position: absolute; top: 30px; right: 30px; text-align:right; font-size:50px"""">N = 2</p>","g",0,69,318.299999952316,0,"agree",17,17,16,15,16,"25","male","none","Strong Disagreement","Moderate Agreement","Neither Agreement nor Disagreement","Slight Agreement","Slight Agreement","Moderate Agreement","Moderate Agreement","Neither Agreement nor Disagreement","Slight Agreement","Moderate Agreement","Moderate Agreement","Slight Agreement","Slight Agreement","Moderate Agreement","Slight Disagreement","Neither Agreement nor Disagreement","Slight Disagreement","Neither Agreement nor Disagreement"
"126","A29RCIFHRAZ797:3TEM0PF1Q635DUMHBBODNDK1BG80D5","2",8,6,2,"50","<p style=""font-size:100px""><b>V</b></p><p style=""position: absolute; top: 30px; right: 30px; text-align:right; font-size:50px"""">N = 2</p>","V",0,69,241.099999904633,0,"agree",17,17,16,15,16,"25","male","none","Strong Disagreement","Moderate Agreement","Neither Agreement nor Disagreement","Slight Agreement","Slight Agreement","Moderate Agreement","Moderate Agreement","Neither Agreement nor Disagreement","Slight Agreement","Moderate Agreement","Moderate Agreement","Slight Agreement","Slight Agreement","Moderate Agreement","Slight Disagreement","Neither Agreement nor Disagreement","Slight Disagreement","Neither Agreement nor Disagreement"
"127","A29RCIFHRAZ797:3TEM0PF1Q635DUMHBBODNDK1BG80D5","2",8,7,2,"50","<p style=""font-size:100px""><b>g</b></p><p style=""position: absolute; top: 30px; right: 30px; text-align:right; font-size:50px"""">N = 2</p>","g",0,69,285.600000143051,0,"agree",17,17,16,15,16,"25","male","none","Strong Disagreement","Moderate Agreement","Neither Agreement nor Disagreement","Slight Agreement","Slight Agreement","Moderate Agreement","Moderate Agreement","Neither Agreement nor Disagreement","Slight Agreement","Moderate Agreement","Moderate Agreement","Slight Agreement","Slight Agreement","Moderate Agreement","Slight Disagreement","Neither Agreement nor Disagreement","Slight Disagreement","Neither Agreement nor Disagreement"
"128","A29RCIFHRAZ797:3TEM0PF1Q635DUMHBBODNDK1BG80D5","2",8,8,2,"50","<p style=""font-size:100px""><b>b</b></p><p style=""position: absolute; top: 30px; right: 30px; text-align:right; font-size:50px"""">N = 2</p>","b",0,69,257.600000143051,0,"agree",17,17,16,15,16,"25","male","none","Strong Disagreement","Moderate Agreement","Neither Agreement nor Disagreement","Slight Agreement","Slight Agreement","Moderate Agreement","Moderate Agreement","Neither Agreement nor Disagreement","Slight Agreement","Moderate Agreement","Moderate Agreement","Slight Agreement","Slight Agreement","Moderate Agreement","Slight Disagreement","Neither Agreement nor Disagreement","Slight Disagreement","Neither Agreement nor Disagreement"
"129","A29RCIFHRAZ797:3TEM0PF1Q635DUMHBBODNDK1BG80D5","2",8,9,2,"50","<p style=""font-size:100px""><b>g</b></p><p style=""position: absolute; top: 30px; right: 30px; text-align:right; font-size:50px"""">N = 2</p>","g",0,69,257.700000047684,0,"agree",17,17,16,15,16,"25","male","none","Strong Disagreement","Moderate Agreement","Neither Agreement nor Disagreement","Slight Agreement","Slight Agreement","Moderate Agreement","Moderate Agreement","Neither Agreement nor Disagreement","Slight Agreement","Moderate Agreement","Moderate Agreement","Slight Agreement","Slight Agreement","Moderate Agreement","Slight Disagreement","Neither Agreement nor Disagreement","Slight Disagreement","Neither Agreement nor Disagreement"
"130","A29RCIFHRAZ797:3TEM0PF1Q635DUMHBBODNDK1BG80D5","2",8,10,2,"50","<p style=""font-size:100px""><b>v</b></p><p style=""position: absolute; top: 30px; right: 30px; text-align:right; font-size:50px"""">N = 2</p>","v",0,69,243.299999952316,0,"agree",17,17,16,15,16,"25","male","none","Strong Disagreement","Moderate Agreement","Neither Agreement nor Disagreement","Slight Agreement","Slight Agreement","Moderate Agreement","Moderate Agreement","Neither Agreement nor Disagreement","Slight Agreement","Moderate Agreement","Moderate Agreement","Slight Agreement","Slight Agreement","Moderate Agreement","Slight Disagreement","Neither Agreement nor Disagreement","Slight Disagreement","Neither Agreement nor Disagreement"
"131","A29RCIFHRAZ797:3TEM0PF1Q635DUMHBBODNDK1BG80D5","2",8,11,2,"50","<p style=""font-size:100px""><b>T</b></p><p style=""position: absolute; top: 30px; right: 30px; text-align:right; font-size:50px"""">N = 2</p>","T",0,69,233.799999952316,0,"agree",17,17,16,15,16,"25","male","none","Strong Disagreement","Moderate Agreement","Neither Agreement nor Disagreement","Slight Agreement","Slight Agreement","Moderate Agreement","Moderate Agreement","Neither Agreement nor Disagreement","Slight Agreement","Moderate Agreement","Moderate Agreement","Slight Agreement","Slight Agreement","Moderate Agreement","Slight Disagreement","Neither Agreement nor Disagreement","Slight Disagreement","Neither Agreement nor Disagreement"
"132","A29RCIFHRAZ797:3TEM0PF1Q635DUMHBBODNDK1BG80D5","2",8,12,2,"50","<p style=""font-size:100px""><b>T</b></p><p style=""position: absolute; top: 30px; right: 30px; text-align:right; font-size:50px"""">N = 2</p>","T",0,69,299.100000143051,0,"agree",17,17,16,15,16,"25","male","none","Strong Disagreement","Moderate Agreement","Neither Agreement nor Disagreement","Slight Agreement","Slight Agreement","Moderate Agreement","Moderate Agreement","Neither Agreement nor Disagreement","Slight Agreement","Moderate Agreement","Moderate Agreement","Slight Agreement","Slight Agreement","Moderate Agreement","Slight Disagreement","Neither Agreement nor Disagreement","Slight Disagreement","Neither Agreement nor Disagreement"
"133","A29RCIFHRAZ797:3TEM0PF1Q635DUMHBBODNDK1BG80D5","2",9,1,1,"50","<p style=""font-size:100px""><b>D</b></p><p style=""position: absolute; top: 30px; right: 30px; text-align:right; font-size:50px"""">N = 1</p>","D",0,73,86.1999998092651,1,"agree",17,16,16,15,16,"25","male","none","Strong Disagreement","Moderate Agreement","Neither Agreement nor Disagreement","Slight Agreement","Slight Agreement","Moderate Agreement","Moderate Agreement","Neither Agreement nor Disagreement","Slight Agreement","Moderate Agreement","Moderate Agreement","Slight Agreement","Slight Agreement","Moderate Agreement","Slight Disagreement","Neither Agreement nor Disagreement","Slight Disagreement","Neither Agreement nor Disagreement"
"134","A29RCIFHRAZ797:3TEM0PF1Q635DUMHBBODNDK1BG80D5","2",9,2,1,"50","<p style=""font-size:100px""><b>B</b></p><p style=""position: absolute; top: 30px; right: 30px; text-align:right; font-size:50px"""">N = 1</p>","B",0,73,352.200000047684,1,"agree",17,16,16,15,16,"25","male","none","Strong Disagreement","Moderate Agreement","Neither Agreement nor Disagreement","Slight Agreement","Slight Agreement","Moderate Agreement","Moderate Agreement","Neither Agreement nor Disagreement","Slight Agreement","Moderate Agreement","Moderate Agreement","Slight Agreement","Slight Agreement","Moderate Agreement","Slight Disagreement","Neither Agreement nor Disagreement","Slight Disagreement","Neither Agreement nor Disagreement"
"135","A29RCIFHRAZ797:3TEM0PF1Q635DUMHBBODNDK1BG80D5","2",9,3,1,"50","<p style=""font-size:100px""><b>B</b></p><p style=""position: absolute; top: 30px; right: 30px; text-align:right; font-size:50px"""">N = 1</p>","B",0,69,267.799999952316,0,"agree",17,16,16,15,16,"25","male","none","Strong Disagreement","Moderate Agreement","Neither Agreement nor Disagreement","Slight Agreement","Slight Agreement","Moderate Agreement","Moderate Agreement","Neither Agreement nor Disagreement","Slight Agreement","Moderate Agreement","Moderate Agreement","Slight Agreement","Slight Agreement","Moderate Agreement","Slight Disagreement","Neither Agreement nor Disagreement","Slight Disagreement","Neither Agreement nor Disagreement"
"136","A29RCIFHRAZ797:3TEM0PF1Q635DUMHBBODNDK1BG80D5","2",9,4,1,"50","<p style=""font-size:100px""><b>D</b></p><p style=""position: absolute; top: 30px; right: 30px; text-align:right; font-size:50px"""">N = 1</p>","D",0,69,332,0,"agree",17,16,16,15,16,"25","male","none","Strong Disagreement","Moderate Agreement","Neither Agreement nor Disagreement","Slight Agreement","Slight Agreement","Moderate Agreement","Moderate Agreement","Neither Agreement nor Disagreement","Slight Agreement","Moderate Agreement","Moderate Agreement","Slight Agreement","Slight Agreement","Moderate Agreement","Slight Disagreement","Neither Agreement nor Disagreement","Slight Disagreement","Neither Agreement nor Disagreement"
"137","A29RCIFHRAZ797:3TEM0PF1Q635DUMHBBODNDK1BG80D5","2",9,5,1,"50","<p style=""font-size:100px""><b>V</b></p><p style=""position: absolute; top: 30px; right: 30px; text-align:right; font-size:50px"""">N = 1</p>","V",0,69,302,0,"agree",17,16,16,15,16,"25","male","none","Strong Disagreement","Moderate Agreement","Neither Agreement nor Disagreement","Slight Agreement","Slight Agreement","Moderate Agreement","Moderate Agreement","Neither Agreement nor Disagreement","Slight Agreement","Moderate Agreement","Moderate Agreement","Slight Agreement","Slight Agreement","Moderate Agreement","Slight Disagreement","Neither Agreement nor Disagreement","Slight Disagreement","Neither Agreement nor Disagreement"
"138","A29RCIFHRAZ797:3TEM0PF1Q635DUMHBBODNDK1BG80D5","2",9,6,1,"50","<p style=""font-size:100px""><b>B</b></p><p style=""position: absolute; top: 30px; right: 30px; text-align:right; font-size:50px"""">N = 1</p>","B",0,69,281.599999904633,0,"agree",17,16,16,15,16,"25","male","none","Strong Disagreement","Moderate Agreement","Neither Agreement nor Disagreement","Slight Agreement","Slight Agreement","Moderate Agreement","Moderate Agreement","Neither Agreement nor Disagreement","Slight Agreement","Moderate Agreement","Moderate Agreement","Slight Agreement","Slight Agreement","Moderate Agreement","Slight Disagreement","Neither Agreement nor Disagreement","Slight Disagreement","Neither Agreement nor Disagreement"
