"","subject","run","block","trial","N","reward","stimulus","cue","isTarget","key_press","rt","acc","debrief","performance","frustration","demand","temporal","effort","age","gender","comments","nfc1","nfc2","nfc3","nfc4","nfc5","nfc6","nfc7","nfc8","nfc9","nfc10","nfc11","nfc12","nfc13","nfc14","nfc15","nfc16","nfc17","nfc18"
"1","A16Z9FSSF1X74O:3D8YOU6S9FQM87JIZVUJ6EYGAQ46UF","practice",1,1,1,"NA","<p style=""font-size:100px""><b>g</b></p><p style=""position: absolute; top: 30px; right: 30px; text-align:right; font-size:50px"""">N = 1</p>","g",0,73,886.70000000298,1,"agree",19,2,4,11,3,"52","Female","Everything was clear. Thank you, and have a nice day!","Moderate Agreement","Moderate Agreement","Moderate Disagreement","Moderate Disagreement","Moderate Disagreement","Slight Disagreement","Moderate Disagreement","Neither Agreement nor Disagreement","Strong Disagreement","Strong Agreement","Moderate Agreement","Strong Disagreement","Strong Agreement","Strong Agreement","Strong Agreement","Moderate Disagreement","Moderate Disagreement","Moderate Disagreement"
"2","A16Z9FSSF1X74O:3D8YOU6S9FQM87JIZVUJ6EYGAQ46UF","practice",1,2,1,"NA","<p style=""font-size:100px""><b>P</b></p><p style=""position: absolute; top: 30px; right: 30px; text-align:right; font-size:50px"""">N = 1</p>","P",0,73,997.70000000298,1,"agree",19,2,4,11,3,"52","Female","Everything was clear. Thank you, and have a nice day!","Moderate Agreement","Moderate Agreement","Moderate Disagreement","Moderate Disagreement","Moderate Disagreement","Slight Disagreement","Moderate Disagreement","Neither Agreement nor Disagreement","Strong Disagreement","Strong Agreement","Moderate Agreement","Strong Disagreement","Strong Agreement","Strong Agreement","Strong Agreement","Moderate Disagreement","Moderate Disagreement","Moderate Disagreement"
"3","A16Z9FSSF1X74O:3D8YOU6S9FQM87JIZVUJ6EYGAQ46UF","practice",1,3,1,"NA","<p style=""font-size:100px""><b>d</b></p><p style=""position: absolute; top: 30px; right: 30px; text-align:right; font-size:50px"""">N = 1</p>","d",0,73,769.20000000298,1,"agree",19,2,4,11,3,"52","Female","Everything was clear. Thank you, and have a nice day!","Moderate Agreement","Moderate Agreement","Moderate Disagreement","Moderate Disagreement","Moderate Disagreement","Slight Disagreement","Moderate Disagreement","Neither Agreement nor Disagreement","Strong Disagreement","Strong Agreement","Moderate Agreement","Strong Disagreement","Strong Agreement","Strong Agreement","Strong Agreement","Moderate Disagreement","Moderate Disagreement","Moderate Disagreement"
"4","A16Z9FSSF1X74O:3D8YOU6S9FQM87JIZVUJ6EYGAQ46UF","practice",1,4,1,"NA","<p style=""font-size:100px""><b>P</b></p><p style=""position: absolute; top: 30px; right: 30px; text-align:right; font-size:50px"""">N = 1</p>","P",0,73,599,1,"agree",19,2,4,11,3,"52","Female","Everything was clear. Thank you, and have a nice day!","Moderate Agreement","Moderate Agreement","Moderate Disagreement","Moderate Disagreement","Moderate Disagreement","Slight Disagreement","Moderate Disagreement","Neither Agreement nor Disagreement","Strong Disagreement","Strong Agreement","Moderate Agreement","Strong Disagreement","Strong Agreement","Strong Agreement","Strong Agreement","Moderate Disagreement","Moderate Disagreement","Moderate Disagreement"
"5","A16Z9FSSF1X74O:3D8YOU6S9FQM87JIZVUJ6EYGAQ46UF","practice",1,5,1,"NA","<p style=""font-size:100px""><b>B</b></p><p style=""position: absolute; top: 30px; right: 30px; text-align:right; font-size:50px"""">N = 1</p>","B",0,73,583.70000000298,1,"agree",19,2,4,11,3,"52","Female","Everything was clear. Thank you, and have a nice day!","Moderate Agreement","Moderate Agreement","Moderate Disagreement","Moderate Disagreement","Moderate Disagreement","Slight Disagreement","Moderate Disagreement","Neither Agreement nor Disagreement","Strong Disagreement","Strong Agreement","Moderate Agreement","Strong Disagreement","Strong Agreement","Strong Agreement","Strong Agreement","Moderate Disagreement","Moderate Disagreement","Moderate Disagreement"
"6","A16Z9FSSF1X74O:3D8YOU6S9FQM87JIZVUJ6EYGAQ46UF","practice",1,6,1,"NA","<p style=""font-size:100px""><b>B</b></p><p style=""position: absolute; top: 30px; right: 30px; text-align:right; font-size:50px"""">N = 1</p>","B",1,69,711.09999999404,1,"agree",19,2,4,11,3,"52","Female","Everything was clear. Thank you, and have a nice day!","Moderate Agreement","Moderate Agreement","Moderate Disagreement","Moderate Disagreement","Moderate Disagreement","Slight Disagreement","Moderate Disagreement","Neither Agreement nor Disagreement","Strong Disagreement","Strong Agreement","Moderate Agreement","Strong Disagreement","Strong Agreement","Strong Agreement","Strong Agreement","Moderate Disagreement","Moderate Disagreement","Moderate Disagreement"
"7","A16Z9FSSF1X74O:3D8YOU6S9FQM87JIZVUJ6EYGAQ46UF","practice",1,7,1,"NA","<p style=""font-size:100px""><b>V</b></p><p style=""position: absolute; top: 30px; right: 30px; text-align:right; font-size:50px"""">N = 1</p>","V",0,73,929.20000000298,1,"agree",19,2,4,11,3,"52","Female","Everything was clear. Thank you, and have a nice day!","Moderate Agreement","Moderate Agreement","Moderate Disagreement","Moderate Disagreement","Moderate Disagreement","Slight Disagreement","Moderate Disagreement","Neither Agreement nor Disagreement","Strong Disagreement","Strong Agreement","Moderate Agreement","Strong Disagreement","Strong Agreement","Strong Agreement","Strong Agreement","Moderate Disagreement","Moderate Disagreement","Moderate Disagreement"
"8","A16Z9FSSF1X74O:3D8YOU6S9FQM87JIZVUJ6EYGAQ46UF","practice",1,8,1,"NA","<p style=""font-size:100px""><b>G</b></p><p style=""position: absolute; top: 30px; right: 30px; text-align:right; font-size:50px"""">N = 1</p>","G",0,73,895.90000000596,1,"agree",19,2,4,11,3,"52","Female","Everything was clear. Thank you, and have a nice day!","Moderate Agreement","Moderate Agreement","Moderate Disagreement","Moderate Disagreement","Moderate Disagreement","Slight Disagreement","Moderate Disagreement","Neither Agreement nor Disagreement","Strong Disagreement","Strong Agreement","Moderate Agreement","Strong Disagreement","Strong Agreement","Strong Agreement","Strong Agreement","Moderate Disagreement","Moderate Disagreement","Moderate Disagreement"
"9","A16Z9FSSF1X74O:3D8YOU6S9FQM87JIZVUJ6EYGAQ46UF","practice",1,9,1,"NA","<p style=""font-size:100px""><b>T</b></p><p style=""position: absolute; top: 30px; right: 30px; text-align:right; font-size:50px"""">N = 1</p>","T",0,73,616.09999999404,1,"agree",19,2,4,11,3,"52","Female","Everything was clear. Thank you, and have a nice day!","Moderate Agreement","Moderate Agreement","Moderate Disagreement","Moderate Disagreement","Moderate Disagreement","Slight Disagreement","Moderate Disagreement","Neither Agreement nor Disagreement","Strong Disagreement","Strong Agreement","Moderate Agreement","Strong Disagreement","Strong Agreement","Strong Agreement","Strong Agreement","Moderate Disagreement","Moderate Disagreement","Moderate Disagreement"
"10","A16Z9FSSF1X74O:3D8YOU6S9FQM87JIZVUJ6EYGAQ46UF","practice",1,10,1,"NA","<p style=""font-size:100px""><b>T</b></p><p style=""position: absolute; top: 30px; right: 30px; text-align:right; font-size:50px"""">N = 1</p>","T",1,73,636.5,0,"agree",19,2,4,11,3,"52","Female","Everything was clear. Thank you, and have a nice day!","Moderate Agreement","Moderate Agreement","Moderate Disagreement","Moderate Disagreement","Moderate Disagreement","Slight Disagreement","Moderate Disagreement","Neither Agreement nor Disagreement","Strong Disagreement","Strong Agreement","Moderate Agreement","Strong Disagreement","Strong Agreement","Strong Agreement","Strong Agreement","Moderate Disagreement","Moderate Disagreement","Moderate Disagreement"
"11","A16Z9FSSF1X74O:3D8YOU6S9FQM87JIZVUJ6EYGAQ46UF","practice",1,11,1,"NA","<p style=""font-size:100px""><b>T</b></p><p style=""position: absolute; top: 30px; right: 30px; text-align:right; font-size:50px"""">N = 1</p>","T",1,69,760.90000000596,1,"agree",19,2,4,11,3,"52","Female","Everything was clear. Thank you, and have a nice day!","Moderate Agreement","Moderate Agreement","Moderate Disagreement","Moderate Disagreement","Moderate Disagreement","Slight Disagreement","Moderate Disagreement","Neither Agreement nor Disagreement","Strong Disagreement","Strong Agreement","Moderate Agreement","Strong Disagreement","Strong Agreement","Strong Agreement","Strong Agreement","Moderate Disagreement","Moderate Disagreement","Moderate Disagreement"
"12","A16Z9FSSF1X74O:3D8YOU6S9FQM87JIZVUJ6EYGAQ46UF","practice",1,12,1,"NA","<p style=""font-size:100px""><b>T</b></p><p style=""position: absolute; top: 30px; right: 30px; text-align:right; font-size:50px"""">N = 1</p>","T",1,69,600.29999999702,1,"agree",19,2,4,11,3,"52","Female","Everything was clear. Thank you, and have a nice day!","Moderate Agreement","Moderate Agreement","Moderate Disagreement","Moderate Disagreement","Moderate Disagreement","Slight Disagreement","Moderate Disagreement","Neither Agreement nor Disagreement","Strong Disagreement","Strong Agreement","Moderate Agreement","Strong Disagreement","Strong Agreement","Strong Agreement","Strong Agreement","Moderate Disagreement","Moderate Disagreement","Moderate Disagreement"
"13","A16Z9FSSF1X74O:3D8YOU6S9FQM87JIZVUJ6EYGAQ46UF","practice",2,1,2,"NA","<p style=""font-size:100px""><b>D</b></p><p style=""position: absolute; top: 30px; right: 30px; text-align:right; font-size:50px"""">N = 2</p>","D",0,73,632.399999991059,1,"agree",19,2,4,11,3,"52","Female","Everything was clear. Thank you, and have a nice day!","Moderate Agreement","Moderate Agreement","Moderate Disagreement","Moderate Disagreement","Moderate Disagreement","Slight Disagreement","Moderate Disagreement","Neither Agreement nor Disagreement","Strong Disagreement","Strong Agreement","Moderate Agreement","Strong Disagreement","Strong Agreement","Strong Agreement","Strong Agreement","Moderate Disagreement","Moderate Disagreement","Moderate Disagreement"
"14","A16Z9FSSF1X74O:3D8YOU6S9FQM87JIZVUJ6EYGAQ46UF","practice",2,2,2,"NA","<p style=""font-size:100px""><b>B</b></p><p style=""position: absolute; top: 30px; right: 30px; text-align:right; font-size:50px"""">N = 2</p>","B",0,73,999.5,1,"agree",19,2,4,11,3,"52","Female","Everything was clear. Thank you, and have a nice day!","Moderate Agreement","Moderate Agreement","Moderate Disagreement","Moderate Disagreement","Moderate Disagreement","Slight Disagreement","Moderate Disagreement","Neither Agreement nor Disagreement","Strong Disagreement","Strong Agreement","Moderate Agreement","Strong Disagreement","Strong Agreement","Strong Agreement","Strong Agreement","Moderate Disagreement","Moderate Disagreement","Moderate Disagreement"
"15","A16Z9FSSF1X74O:3D8YOU6S9FQM87JIZVUJ6EYGAQ46UF","practice",2,3,2,"NA","<p style=""font-size:100px""><b>g</b></p><p style=""position: absolute; top: 30px; right: 30px; text-align:right; font-size:50px"""">N = 2</p>","g",0,73,832.600000008941,1,"agree",19,2,4,11,3,"52","Female","Everything was clear. Thank you, and have a nice day!","Moderate Agreement","Moderate Agreement","Moderate Disagreement","Moderate Disagreement","Moderate Disagreement","Slight Disagreement","Moderate Disagreement","Neither Agreement nor Disagreement","Strong Disagreement","Strong Agreement","Moderate Agreement","Strong Disagreement","Strong Agreement","Strong Agreement","Strong Agreement","Moderate Disagreement","Moderate Disagreement","Moderate Disagreement"
"16","A16Z9FSSF1X74O:3D8YOU6S9FQM87JIZVUJ6EYGAQ46UF","practice",2,4,2,"NA","<p style=""font-size:100px""><b>t</b></p><p style=""position: absolute; top: 30px; right: 30px; text-align:right; font-size:50px"""">N = 2</p>","t",0,73,853.100000008941,1,"agree",19,2,4,11,3,"52","Female","Everything was clear. Thank you, and have a nice day!","Moderate Agreement","Moderate Agreement","Moderate Disagreement","Moderate Disagreement","Moderate Disagreement","Slight Disagreement","Moderate Disagreement","Neither Agreement nor Disagreement","Strong Disagreement","Strong Agreement","Moderate Agreement","Strong Disagreement","Strong Agreement","Strong Agreement","Strong Agreement","Moderate Disagreement","Moderate Disagreement","Moderate Disagreement"
"17","A16Z9FSSF1X74O:3D8YOU6S9FQM87JIZVUJ6EYGAQ46UF","practice",2,5,2,"NA","<p style=""font-size:100px""><b>p</b></p><p style=""position: absolute; top: 30px; right: 30px; text-align:right; font-size:50px"""">N = 2</p>","p",0,73,839.600000008941,1,"agree",19,2,4,11,3,"52","Female","Everything was clear. Thank you, and have a nice day!","Moderate Agreement","Moderate Agreement","Moderate Disagreement","Moderate Disagreement","Moderate Disagreement","Slight Disagreement","Moderate Disagreement","Neither Agreement nor Disagreement","Strong Disagreement","Strong Agreement","Moderate Agreement","Strong Disagreement","Strong Agreement","Strong Agreement","Strong Agreement","Moderate Disagreement","Moderate Disagreement","Moderate Disagreement"
"18","A16Z9FSSF1X74O:3D8YOU6S9FQM87JIZVUJ6EYGAQ46UF","practice",2,6,2,"NA","<p style=""font-size:100px""><b>P</b></p><p style=""position: absolute; top: 30px; right: 30px; text-align:right; font-size:50px"""">N = 2</p>","P",0,73,1062.20000000298,1,"agree",19,2,4,11,3,"52","Female","Everything was clear. Thank you, and have a nice day!","Moderate Agreement","Moderate Agreement","Moderate Disagreement","Moderate Disagreement","Moderate Disagreement","Slight Disagreement","Moderate Disagreement","Neither Agreement nor Disagreement","Strong Disagreement","Strong Agreement","Moderate Agreement","Strong Disagreement","Strong Agreement","Strong Agreement","Strong Agreement","Moderate Disagreement","Moderate Disagreement","Moderate Disagreement"
"19","A16Z9FSSF1X74O:3D8YOU6S9FQM87JIZVUJ6EYGAQ46UF","practice",2,7,2,"NA","<p style=""font-size:100px""><b>p</b></p><p style=""position: absolute; top: 30px; right: 30px; text-align:right; font-size:50px"""">N = 2</p>","p",1,69,1295.5,1,"agree",19,2,4,11,3,"52","Female","Everything was clear. Thank you, and have a nice day!","Moderate Agreement","Moderate Agreement","Moderate Disagreement","Moderate Disagreement","Moderate Disagreement","Slight Disagreement","Moderate Disagreement","Neither Agreement nor Disagreement","Strong Disagreement","Strong Agreement","Moderate Agreement","Strong Disagreement","Strong Agreement","Strong Agreement","Strong Agreement","Moderate Disagreement","Moderate Disagreement","Moderate Disagreement"
"20","A16Z9FSSF1X74O:3D8YOU6S9FQM87JIZVUJ6EYGAQ46UF","practice",2,8,2,"NA","<p style=""font-size:100px""><b>D</b></p><p style=""position: absolute; top: 30px; right: 30px; text-align:right; font-size:50px"""">N = 2</p>","D",0,73,919,1,"agree",19,2,4,11,3,"52","Female","Everything was clear. Thank you, and have a nice day!","Moderate Agreement","Moderate Agreement","Moderate Disagreement","Moderate Disagreement","Moderate Disagreement","Slight Disagreement","Moderate Disagreement","Neither Agreement nor Disagreement","Strong Disagreement","Strong Agreement","Moderate Agreement","Strong Disagreement","Strong Agreement","Strong Agreement","Strong Agreement","Moderate Disagreement","Moderate Disagreement","Moderate Disagreement"
"21","A16Z9FSSF1X74O:3D8YOU6S9FQM87JIZVUJ6EYGAQ46UF","practice",2,9,2,"NA","<p style=""font-size:100px""><b>B</b></p><p style=""position: absolute; top: 30px; right: 30px; text-align:right; font-size:50px"""">N = 2</p>","B",0,73,760.699999988079,1,"agree",19,2,4,11,3,"52","Female","Everything was clear. Thank you, and have a nice day!","Moderate Agreement","Moderate Agreement","Moderate Disagreement","Moderate Disagreement","Moderate Disagreement","Slight Disagreement","Moderate Disagreement","Neither Agreement nor Disagreement","Strong Disagreement","Strong Agreement","Moderate Agreement","Strong Disagreement","Strong Agreement","Strong Agreement","Strong Agreement","Moderate Disagreement","Moderate Disagreement","Moderate Disagreement"
"22","A16Z9FSSF1X74O:3D8YOU6S9FQM87JIZVUJ6EYGAQ46UF","practice",2,10,2,"NA","<p style=""font-size:100px""><b>D</b></p><p style=""position: absolute; top: 30px; right: 30px; text-align:right; font-size:50px"""">N = 2</p>","D",1,73,1290.89999999106,0,"agree",19,2,4,11,3,"52","Female","Everything was clear. Thank you, and have a nice day!","Moderate Agreement","Moderate Agreement","Moderate Disagreement","Moderate Disagreement","Moderate Disagreement","Slight Disagreement","Moderate Disagreement","Neither Agreement nor Disagreement","Strong Disagreement","Strong Agreement","Moderate Agreement","Strong Disagreement","Strong Agreement","Strong Agreement","Strong Agreement","Moderate Disagreement","Moderate Disagreement","Moderate Disagreement"
"23","A16Z9FSSF1X74O:3D8YOU6S9FQM87JIZVUJ6EYGAQ46UF","practice",2,11,2,"NA","<p style=""font-size:100px""><b>B</b></p><p style=""position: absolute; top: 30px; right: 30px; text-align:right; font-size:50px"""">N = 2</p>","B",1,69,931.20000000298,1,"agree",19,2,4,11,3,"52","Female","Everything was clear. Thank you, and have a nice day!","Moderate Agreement","Moderate Agreement","Moderate Disagreement","Moderate Disagreement","Moderate Disagreement","Slight Disagreement","Moderate Disagreement","Neither Agreement nor Disagreement","Strong Disagreement","Strong Agreement","Moderate Agreement","Strong Disagreement","Strong Agreement","Strong Agreement","Strong Agreement","Moderate Disagreement","Moderate Disagreement","Moderate Disagreement"
"24","A16Z9FSSF1X74O:3D8YOU6S9FQM87JIZVUJ6EYGAQ46UF","practice",2,12,2,"NA","<p style=""font-size:100px""><b>D</b></p><p style=""position: absolute; top: 30px; right: 30px; text-align:right; font-size:50px"""">N = 2</p>","D",1,69,1231.10000000894,1,"agree",19,2,4,11,3,"52","Female","Everything was clear. Thank you, and have a nice day!","Moderate Agreement","Moderate Agreement","Moderate Disagreement","Moderate Disagreement","Moderate Disagreement","Slight Disagreement","Moderate Disagreement","Neither Agreement nor Disagreement","Strong Disagreement","Strong Agreement","Moderate Agreement","Strong Disagreement","Strong Agreement","Strong Agreement","Strong Agreement","Moderate Disagreement","Moderate Disagreement","Moderate Disagreement"
"25","A16Z9FSSF1X74O:3D8YOU6S9FQM87JIZVUJ6EYGAQ46UF","practice",3,1,3,"NA","<p style=""font-size:100px""><b>P</b></p><p style=""position: absolute; top: 30px; right: 30px; text-align:right; font-size:50px"""">N = 3</p>","P",0,73,601.90000000596,1,"agree",19,2,4,11,3,"52","Female","Everything was clear. Thank you, and have a nice day!","Moderate Agreement","Moderate Agreement","Moderate Disagreement","Moderate Disagreement","Moderate Disagreement","Slight Disagreement","Moderate Disagreement","Neither Agreement nor Disagreement","Strong Disagreement","Strong Agreement","Moderate Agreement","Strong Disagreement","Strong Agreement","Strong Agreement","Strong Agreement","Moderate Disagreement","Moderate Disagreement","Moderate Disagreement"
"26","A16Z9FSSF1X74O:3D8YOU6S9FQM87JIZVUJ6EYGAQ46UF","practice",3,2,3,"NA","<p style=""font-size:100px""><b>V</b></p><p style=""position: absolute; top: 30px; right: 30px; text-align:right; font-size:50px"""">N = 3</p>","V",0,73,918.899999991059,1,"agree",19,2,4,11,3,"52","Female","Everything was clear. Thank you, and have a nice day!","Moderate Agreement","Moderate Agreement","Moderate Disagreement","Moderate Disagreement","Moderate Disagreement","Slight Disagreement","Moderate Disagreement","Neither Agreement nor Disagreement","Strong Disagreement","Strong Agreement","Moderate Agreement","Strong Disagreement","Strong Agreement","Strong Agreement","Strong Agreement","Moderate Disagreement","Moderate Disagreement","Moderate Disagreement"
"27","A16Z9FSSF1X74O:3D8YOU6S9FQM87JIZVUJ6EYGAQ46UF","practice",3,3,3,"NA","<p style=""font-size:100px""><b>d</b></p><p style=""position: absolute; top: 30px; right: 30px; text-align:right; font-size:50px"""">N = 3</p>","d",0,73,655.5,1,"agree",19,2,4,11,3,"52","Female","Everything was clear. Thank you, and have a nice day!","Moderate Agreement","Moderate Agreement","Moderate Disagreement","Moderate Disagreement","Moderate Disagreement","Slight Disagreement","Moderate Disagreement","Neither Agreement nor Disagreement","Strong Disagreement","Strong Agreement","Moderate Agreement","Strong Disagreement","Strong Agreement","Strong Agreement","Strong Agreement","Moderate Disagreement","Moderate Disagreement","Moderate Disagreement"
"28","A16Z9FSSF1X74O:3D8YOU6S9FQM87JIZVUJ6EYGAQ46UF","practice",3,4,3,"NA","<p style=""font-size:100px""><b>v</b></p><p style=""position: absolute; top: 30px; right: 30px; text-align:right; font-size:50px"""">N = 3</p>","v",0,69,1104,0,"agree",19,2,4,11,3,"52","Female","Everything was clear. Thank you, and have a nice day!","Moderate Agreement","Moderate Agreement","Moderate Disagreement","Moderate Disagreement","Moderate Disagreement","Slight Disagreement","Moderate Disagreement","Neither Agreement nor Disagreement","Strong Disagreement","Strong Agreement","Moderate Agreement","Strong Disagreement","Strong Agreement","Strong Agreement","Strong Agreement","Moderate Disagreement","Moderate Disagreement","Moderate Disagreement"
"29","A16Z9FSSF1X74O:3D8YOU6S9FQM87JIZVUJ6EYGAQ46UF","practice",3,5,3,"NA","<p style=""font-size:100px""><b>B</b></p><p style=""position: absolute; top: 30px; right: 30px; text-align:right; font-size:50px"""">N = 3</p>","B",0,73,1109.39999999106,1,"agree",19,2,4,11,3,"52","Female","Everything was clear. Thank you, and have a nice day!","Moderate Agreement","Moderate Agreement","Moderate Disagreement","Moderate Disagreement","Moderate Disagreement","Slight Disagreement","Moderate Disagreement","Neither Agreement nor Disagreement","Strong Disagreement","Strong Agreement","Moderate Agreement","Strong Disagreement","Strong Agreement","Strong Agreement","Strong Agreement","Moderate Disagreement","Moderate Disagreement","Moderate Disagreement"
"30","A16Z9FSSF1X74O:3D8YOU6S9FQM87JIZVUJ6EYGAQ46UF","practice",3,6,3,"NA","<p style=""font-size:100px""><b>d</b></p><p style=""position: absolute; top: 30px; right: 30px; text-align:right; font-size:50px"""">N = 3</p>","d",1,73,1095.5,0,"agree",19,2,4,11,3,"52","Female","Everything was clear. Thank you, and have a nice day!","Moderate Agreement","Moderate Agreement","Moderate Disagreement","Moderate Disagreement","Moderate Disagreement","Slight Disagreement","Moderate Disagreement","Neither Agreement nor Disagreement","Strong Disagreement","Strong Agreement","Moderate Agreement","Strong Disagreement","Strong Agreement","Strong Agreement","Strong Agreement","Moderate Disagreement","Moderate Disagreement","Moderate Disagreement"
"31","A16Z9FSSF1X74O:3D8YOU6S9FQM87JIZVUJ6EYGAQ46UF","practice",3,7,3,"NA","<p style=""font-size:100px""><b>v</b></p><p style=""position: absolute; top: 30px; right: 30px; text-align:right; font-size:50px"""">N = 3</p>","v",1,69,1246.5,1,"agree",19,2,4,11,3,"52","Female","Everything was clear. Thank you, and have a nice day!","Moderate Agreement","Moderate Agreement","Moderate Disagreement","Moderate Disagreement","Moderate Disagreement","Slight Disagreement","Moderate Disagreement","Neither Agreement nor Disagreement","Strong Disagreement","Strong Agreement","Moderate Agreement","Strong Disagreement","Strong Agreement","Strong Agreement","Strong Agreement","Moderate Disagreement","Moderate Disagreement","Moderate Disagreement"
"32","A16Z9FSSF1X74O:3D8YOU6S9FQM87JIZVUJ6EYGAQ46UF","practice",3,8,3,"NA","<p style=""font-size:100px""><b>B</b></p><p style=""position: absolute; top: 30px; right: 30px; text-align:right; font-size:50px"""">N = 3</p>","B",1,69,911.90000000596,1,"agree",19,2,4,11,3,"52","Female","Everything was clear. Thank you, and have a nice day!","Moderate Agreement","Moderate Agreement","Moderate Disagreement","Moderate Disagreement","Moderate Disagreement","Slight Disagreement","Moderate Disagreement","Neither Agreement nor Disagreement","Strong Disagreement","Strong Agreement","Moderate Agreement","Strong Disagreement","Strong Agreement","Strong Agreement","Strong Agreement","Moderate Disagreement","Moderate Disagreement","Moderate Disagreement"
"33","A16Z9FSSF1X74O:3D8YOU6S9FQM87JIZVUJ6EYGAQ46UF","practice",3,9,3,"NA","<p style=""font-size:100px""><b>g</b></p><p style=""position: absolute; top: 30px; right: 30px; text-align:right; font-size:50px"""">N = 3</p>","g",0,73,793.20000000298,1,"agree",19,2,4,11,3,"52","Female","Everything was clear. Thank you, and have a nice day!","Moderate Agreement","Moderate Agreement","Moderate Disagreement","Moderate Disagreement","Moderate Disagreement","Slight Disagreement","Moderate Disagreement","Neither Agreement nor Disagreement","Strong Disagreement","Strong Agreement","Moderate Agreement","Strong Disagreement","Strong Agreement","Strong Agreement","Strong Agreement","Moderate Disagreement","Moderate Disagreement","Moderate Disagreement"
"34","A16Z9FSSF1X74O:3D8YOU6S9FQM87JIZVUJ6EYGAQ46UF","practice",3,10,3,"NA","<p style=""font-size:100px""><b>P</b></p><p style=""position: absolute; top: 30px; right: 30px; text-align:right; font-size:50px"""">N = 3</p>","P",0,73,1384.09999999404,1,"agree",19,2,4,11,3,"52","Female","Everything was clear. Thank you, and have a nice day!","Moderate Agreement","Moderate Agreement","Moderate Disagreement","Moderate Disagreement","Moderate Disagreement","Slight Disagreement","Moderate Disagreement","Neither Agreement nor Disagreement","Strong Disagreement","Strong Agreement","Moderate Agreement","Strong Disagreement","Strong Agreement","Strong Agreement","Strong Agreement","Moderate Disagreement","Moderate Disagreement","Moderate Disagreement"
"35","A16Z9FSSF1X74O:3D8YOU6S9FQM87JIZVUJ6EYGAQ46UF","practice",3,11,3,"NA","<p style=""font-size:100px""><b>B</b></p><p style=""position: absolute; top: 30px; right: 30px; text-align:right; font-size:50px"""">N = 3</p>","B",1,69,974.40000000596,1,"agree",19,2,4,11,3,"52","Female","Everything was clear. Thank you, and have a nice day!","Moderate Agreement","Moderate Agreement","Moderate Disagreement","Moderate Disagreement","Moderate Disagreement","Slight Disagreement","Moderate Disagreement","Neither Agreement nor Disagreement","Strong Disagreement","Strong Agreement","Moderate Agreement","Strong Disagreement","Strong Agreement","Strong Agreement","Strong Agreement","Moderate Disagreement","Moderate Disagreement","Moderate Disagreement"
"36","A16Z9FSSF1X74O:3D8YOU6S9FQM87JIZVUJ6EYGAQ46UF","practice",3,12,3,"NA","<p style=""font-size:100px""><b>P</b></p><p style=""position: absolute; top: 30px; right: 30px; text-align:right; font-size:50px"""">N = 3</p>","P",0,73,1316.5,1,"agree",19,2,4,11,3,"52","Female","Everything was clear. Thank you, and have a nice day!","Moderate Agreement","Moderate Agreement","Moderate Disagreement","Moderate Disagreement","Moderate Disagreement","Slight Disagreement","Moderate Disagreement","Neither Agreement nor Disagreement","Strong Disagreement","Strong Agreement","Moderate Agreement","Strong Disagreement","Strong Agreement","Strong Agreement","Strong Agreement","Moderate Disagreement","Moderate Disagreement","Moderate Disagreement"
"37","A16Z9FSSF1X74O:3D8YOU6S9FQM87JIZVUJ6EYGAQ46UF","1",1,1,1,"50","<p style=""font-size:100px""><b>v</b></p><p style=""position: absolute; top: 30px; right: 30px; text-align:right; font-size:50px"""">N = 1</p>","v",0,73,983.899999991059,1,"agree",19,2,4,11,3,"52","Female","Everything was clear. Thank you, and have a nice day!","Moderate Agreement","Moderate Agreement","Moderate Disagreement","Moderate Disagreement","Moderate Disagreement","Slight Disagreement","Moderate Disagreement","Neither Agreement nor Disagreement","Strong Disagreement","Strong Agreement","Moderate Agreement","Strong Disagreement","Strong Agreement","Strong Agreement","Strong Agreement","Moderate Disagreement","Moderate Disagreement","Moderate Disagreement"
"38","A16Z9FSSF1X74O:3D8YOU6S9FQM87JIZVUJ6EYGAQ46UF","1",1,2,1,"50","<p style=""font-size:100px""><b>B</b></p><p style=""position: absolute; top: 30px; right: 30px; text-align:right; font-size:50px"""">N = 1</p>","B",0,73,863.70000000298,1,"agree",19,2,4,11,3,"52","Female","Everything was clear. Thank you, and have a nice day!","Moderate Agreement","Moderate Agreement","Moderate Disagreement","Moderate Disagreement","Moderate Disagreement","Slight Disagreement","Moderate Disagreement","Neither Agreement nor Disagreement","Strong Disagreement","Strong Agreement","Moderate Agreement","Strong Disagreement","Strong Agreement","Strong Agreement","Strong Agreement","Moderate Disagreement","Moderate Disagreement","Moderate Disagreement"
"39","A16Z9FSSF1X74O:3D8YOU6S9FQM87JIZVUJ6EYGAQ46UF","1",1,3,1,"50","<p style=""font-size:100px""><b>T</b></p><p style=""position: absolute; top: 30px; right: 30px; text-align:right; font-size:50px"""">N = 1</p>","T",0,73,635.800000011921,1,"agree",19,2,4,11,3,"52","Female","Everything was clear. Thank you, and have a nice day!","Moderate Agreement","Moderate Agreement","Moderate Disagreement","Moderate Disagreement","Moderate Disagreement","Slight Disagreement","Moderate Disagreement","Neither Agreement nor Disagreement","Strong Disagreement","Strong Agreement","Moderate Agreement","Strong Disagreement","Strong Agreement","Strong Agreement","Strong Agreement","Moderate Disagreement","Moderate Disagreement","Moderate Disagreement"
"40","A16Z9FSSF1X74O:3D8YOU6S9FQM87JIZVUJ6EYGAQ46UF","1",1,4,1,"50","<p style=""font-size:100px""><b>g</b></p><p style=""position: absolute; top: 30px; right: 30px; text-align:right; font-size:50px"""">N = 1</p>","g",0,73,506.600000008941,1,"agree",19,2,4,11,3,"52","Female","Everything was clear. Thank you, and have a nice day!","Moderate Agreement","Moderate Agreement","Moderate Disagreement","Moderate Disagreement","Moderate Disagreement","Slight Disagreement","Moderate Disagreement","Neither Agreement nor Disagreement","Strong Disagreement","Strong Agreement","Moderate Agreement","Strong Disagreement","Strong Agreement","Strong Agreement","Strong Agreement","Moderate Disagreement","Moderate Disagreement","Moderate Disagreement"
"41","A16Z9FSSF1X74O:3D8YOU6S9FQM87JIZVUJ6EYGAQ46UF","1",1,5,1,"50","<p style=""font-size:100px""><b>g</b></p><p style=""position: absolute; top: 30px; right: 30px; text-align:right; font-size:50px"""">N = 1</p>","g",0,69,489.20000000298,0,"agree",19,2,4,11,3,"52","Female","Everything was clear. Thank you, and have a nice day!","Moderate Agreement","Moderate Agreement","Moderate Disagreement","Moderate Disagreement","Moderate Disagreement","Slight Disagreement","Moderate Disagreement","Neither Agreement nor Disagreement","Strong Disagreement","Strong Agreement","Moderate Agreement","Strong Disagreement","Strong Agreement","Strong Agreement","Strong Agreement","Moderate Disagreement","Moderate Disagreement","Moderate Disagreement"
"42","A16Z9FSSF1X74O:3D8YOU6S9FQM87JIZVUJ6EYGAQ46UF","1",1,6,1,"50","<p style=""font-size:100px""><b>p</b></p><p style=""position: absolute; top: 30px; right: 30px; text-align:right; font-size:50px"""">N = 1</p>","p",0,73,439.90000000596,1,"agree",19,2,4,11,3,"52","Female","Everything was clear. Thank you, and have a nice day!","Moderate Agreement","Moderate Agreement","Moderate Disagreement","Moderate Disagreement","Moderate Disagreement","Slight Disagreement","Moderate Disagreement","Neither Agreement nor Disagreement","Strong Disagreement","Strong Agreement","Moderate Agreement","Strong Disagreement","Strong Agreement","Strong Agreement","Strong Agreement","Moderate Disagreement","Moderate Disagreement","Moderate Disagreement"
"43","A16Z9FSSF1X74O:3D8YOU6S9FQM87JIZVUJ6EYGAQ46UF","1",1,7,1,"50","<p style=""font-size:100px""><b>v</b></p><p style=""position: absolute; top: 30px; right: 30px; text-align:right; font-size:50px"""">N = 1</p>","v",0,73,574.79999999702,1,"agree",19,2,4,11,3,"52","Female","Everything was clear. Thank you, and have a nice day!","Moderate Agreement","Moderate Agreement","Moderate Disagreement","Moderate Disagreement","Moderate Disagreement","Slight Disagreement","Moderate Disagreement","Neither Agreement nor Disagreement","Strong Disagreement","Strong Agreement","Moderate Agreement","Strong Disagreement","Strong Agreement","Strong Agreement","Strong Agreement","Moderate Disagreement","Moderate Disagreement","Moderate Disagreement"
"44","A16Z9FSSF1X74O:3D8YOU6S9FQM87JIZVUJ6EYGAQ46UF","1",1,8,1,"50","<p style=""font-size:100px""><b>v</b></p><p style=""position: absolute; top: 30px; right: 30px; text-align:right; font-size:50px"""">N = 1</p>","v",0,69,822.70000000298,0,"agree",19,2,4,11,3,"52","Female","Everything was clear. Thank you, and have a nice day!","Moderate Agreement","Moderate Agreement","Moderate Disagreement","Moderate Disagreement","Moderate Disagreement","Slight Disagreement","Moderate Disagreement","Neither Agreement nor Disagreement","Strong Disagreement","Strong Agreement","Moderate Agreement","Strong Disagreement","Strong Agreement","Strong Agreement","Strong Agreement","Moderate Disagreement","Moderate Disagreement","Moderate Disagreement"
"45","A16Z9FSSF1X74O:3D8YOU6S9FQM87JIZVUJ6EYGAQ46UF","1",1,9,1,"50","<p style=""font-size:100px""><b>v</b></p><p style=""position: absolute; top: 30px; right: 30px; text-align:right; font-size:50px"""">N = 1</p>","v",0,69,619.5,0,"agree",19,2,4,11,3,"52","Female","Everything was clear. Thank you, and have a nice day!","Moderate Agreement","Moderate Agreement","Moderate Disagreement","Moderate Disagreement","Moderate Disagreement","Slight Disagreement","Moderate Disagreement","Neither Agreement nor Disagreement","Strong Disagreement","Strong Agreement","Moderate Agreement","Strong Disagreement","Strong Agreement","Strong Agreement","Strong Agreement","Moderate Disagreement","Moderate Disagreement","Moderate Disagreement"
"46","A16Z9FSSF1X74O:3D8YOU6S9FQM87JIZVUJ6EYGAQ46UF","1",1,10,1,"50","<p style=""font-size:100px""><b>D</b></p><p style=""position: absolute; top: 30px; right: 30px; text-align:right; font-size:50px"""">N = 1</p>","D",0,73,425.70000000298,1,"agree",19,2,4,11,3,"52","Female","Everything was clear. Thank you, and have a nice day!","Moderate Agreement","Moderate Agreement","Moderate Disagreement","Moderate Disagreement","Moderate Disagreement","Slight Disagreement","Moderate Disagreement","Neither Agreement nor Disagreement","Strong Disagreement","Strong Agreement","Moderate Agreement","Strong Disagreement","Strong Agreement","Strong Agreement","Strong Agreement","Moderate Disagreement","Moderate Disagreement","Moderate Disagreement"
"47","A16Z9FSSF1X74O:3D8YOU6S9FQM87JIZVUJ6EYGAQ46UF","1",1,11,1,"50","<p style=""font-size:100px""><b>t</b></p><p style=""position: absolute; top: 30px; right: 30px; text-align:right; font-size:50px"""">N = 1</p>","t",0,73,474.59999999404,1,"agree",19,2,4,11,3,"52","Female","Everything was clear. Thank you, and have a nice day!","Moderate Agreement","Moderate Agreement","Moderate Disagreement","Moderate Disagreement","Moderate Disagreement","Slight Disagreement","Moderate Disagreement","Neither Agreement nor Disagreement","Strong Disagreement","Strong Agreement","Moderate Agreement","Strong Disagreement","Strong Agreement","Strong Agreement","Strong Agreement","Moderate Disagreement","Moderate Disagreement","Moderate Disagreement"
"48","A16Z9FSSF1X74O:3D8YOU6S9FQM87JIZVUJ6EYGAQ46UF","1",1,12,1,"50","<p style=""font-size:100px""><b>t</b></p><p style=""position: absolute; top: 30px; right: 30px; text-align:right; font-size:50px"""">N = 1</p>","t",0,69,594,0,"agree",19,2,4,11,3,"52","Female","Everything was clear. Thank you, and have a nice day!","Moderate Agreement","Moderate Agreement","Moderate Disagreement","Moderate Disagreement","Moderate Disagreement","Slight Disagreement","Moderate Disagreement","Neither Agreement nor Disagreement","Strong Disagreement","Strong Agreement","Moderate Agreement","Strong Disagreement","Strong Agreement","Strong Agreement","Strong Agreement","Moderate Disagreement","Moderate Disagreement","Moderate Disagreement"
"49","A16Z9FSSF1X74O:3D8YOU6S9FQM87JIZVUJ6EYGAQ46UF","1",2,1,3,"50","<p style=""font-size:100px""><b>p</b></p><p style=""position: absolute; top: 30px; right: 30px; text-align:right; font-size:50px"""">N = 3</p>","p",0,73,547.09999999404,1,"agree",11,13,16,11,16,"52","Female","Everything was clear. Thank you, and have a nice day!","Moderate Agreement","Moderate Agreement","Moderate Disagreement","Moderate Disagreement","Moderate Disagreement","Slight Disagreement","Moderate Disagreement","Neither Agreement nor Disagreement","Strong Disagreement","Strong Agreement","Moderate Agreement","Strong Disagreement","Strong Agreement","Strong Agreement","Strong Agreement","Moderate Disagreement","Moderate Disagreement","Moderate Disagreement"
"50","A16Z9FSSF1X74O:3D8YOU6S9FQM87JIZVUJ6EYGAQ46UF","1",2,2,3,"50","<p style=""font-size:100px""><b>D</b></p><p style=""position: absolute; top: 30px; right: 30px; text-align:right; font-size:50px"""">N = 3</p>","D",0,73,730.5,1,"agree",11,13,16,11,16,"52","Female","Everything was clear. Thank you, and have a nice day!","Moderate Agreement","Moderate Agreement","Moderate Disagreement","Moderate Disagreement","Moderate Disagreement","Slight Disagreement","Moderate Disagreement","Neither Agreement nor Disagreement","Strong Disagreement","Strong Agreement","Moderate Agreement","Strong Disagreement","Strong Agreement","Strong Agreement","Strong Agreement","Moderate Disagreement","Moderate Disagreement","Moderate Disagreement"
"51","A16Z9FSSF1X74O:3D8YOU6S9FQM87JIZVUJ6EYGAQ46UF","1",2,3,3,"50","<p style=""font-size:100px""><b>T</b></p><p style=""position: absolute; top: 30px; right: 30px; text-align:right; font-size:50px"""">N = 3</p>","T",0,73,667.40000000596,1,"agree",11,13,16,11,16,"52","Female","Everything was clear. Thank you, and have a nice day!","Moderate Agreement","Moderate Agreement","Moderate Disagreement","Moderate Disagreement","Moderate Disagreement","Slight Disagreement","Moderate Disagreement","Neither Agreement nor Disagreement","Strong Disagreement","Strong Agreement","Moderate Agreement","Strong Disagreement","Strong Agreement","Strong Agreement","Strong Agreement","Moderate Disagreement","Moderate Disagreement","Moderate Disagreement"
"52","A16Z9FSSF1X74O:3D8YOU6S9FQM87JIZVUJ6EYGAQ46UF","1",2,4,3,"50","<p style=""font-size:100px""><b>p</b></p><p style=""position: absolute; top: 30px; right: 30px; text-align:right; font-size:50px"""">N = 3</p>","p",0,69,489.29999999702,0,"agree",11,13,16,11,16,"52","Female","Everything was clear. Thank you, and have a nice day!","Moderate Agreement","Moderate Agreement","Moderate Disagreement","Moderate Disagreement","Moderate Disagreement","Slight Disagreement","Moderate Disagreement","Neither Agreement nor Disagreement","Strong Disagreement","Strong Agreement","Moderate Agreement","Strong Disagreement","Strong Agreement","Strong Agreement","Strong Agreement","Moderate Disagreement","Moderate Disagreement","Moderate Disagreement"
"53","A16Z9FSSF1X74O:3D8YOU6S9FQM87JIZVUJ6EYGAQ46UF","1",2,5,3,"50","<p style=""font-size:100px""><b>D</b></p><p style=""position: absolute; top: 30px; right: 30px; text-align:right; font-size:50px"""">N = 3</p>","D",0,73,753.800000011921,1,"agree",11,13,16,11,16,"52","Female","Everything was clear. Thank you, and have a nice day!","Moderate Agreement","Moderate Agreement","Moderate Disagreement","Moderate Disagreement","Moderate Disagreement","Slight Disagreement","Moderate Disagreement","Neither Agreement nor Disagreement","Strong Disagreement","Strong Agreement","Moderate Agreement","Strong Disagreement","Strong Agreement","Strong Agreement","Strong Agreement","Moderate Disagreement","Moderate Disagreement","Moderate Disagreement"
"54","A16Z9FSSF1X74O:3D8YOU6S9FQM87JIZVUJ6EYGAQ46UF","1",2,6,3,"50","<p style=""font-size:100px""><b>V</b></p><p style=""position: absolute; top: 30px; right: 30px; text-align:right; font-size:50px"""">N = 3</p>","V",0,73,770.90000000596,1,"agree",11,13,16,11,16,"52","Female","Everything was clear. Thank you, and have a nice day!","Moderate Agreement","Moderate Agreement","Moderate Disagreement","Moderate Disagreement","Moderate Disagreement","Slight Disagreement","Moderate Disagreement","Neither Agreement nor Disagreement","Strong Disagreement","Strong Agreement","Moderate Agreement","Strong Disagreement","Strong Agreement","Strong Agreement","Strong Agreement","Moderate Disagreement","Moderate Disagreement","Moderate Disagreement"
"55","A16Z9FSSF1X74O:3D8YOU6S9FQM87JIZVUJ6EYGAQ46UF","1",2,7,3,"50","<p style=""font-size:100px""><b>V</b></p><p style=""position: absolute; top: 30px; right: 30px; text-align:right; font-size:50px"""">N = 3</p>","V",0,73,922.79999999702,1,"agree",11,13,16,11,16,"52","Female","Everything was clear. Thank you, and have a nice day!","Moderate Agreement","Moderate Agreement","Moderate Disagreement","Moderate Disagreement","Moderate Disagreement","Slight Disagreement","Moderate Disagreement","Neither Agreement nor Disagreement","Strong Disagreement","Strong Agreement","Moderate Agreement","Strong Disagreement","Strong Agreement","Strong Agreement","Strong Agreement","Moderate Disagreement","Moderate Disagreement","Moderate Disagreement"
"56","A16Z9FSSF1X74O:3D8YOU6S9FQM87JIZVUJ6EYGAQ46UF","1",2,8,3,"50","<p style=""font-size:100px""><b>G</b></p><p style=""position: absolute; top: 30px; right: 30px; text-align:right; font-size:50px"""">N = 3</p>","G",0,73,921.79999999702,1,"agree",11,13,16,11,16,"52","Female","Everything was clear. Thank you, and have a nice day!","Moderate Agreement","Moderate Agreement","Moderate Disagreement","Moderate Disagreement","Moderate Disagreement","Slight Disagreement","Moderate Disagreement","Neither Agreement nor Disagreement","Strong Disagreement","Strong Agreement","Moderate Agreement","Strong Disagreement","Strong Agreement","Strong Agreement","Strong Agreement","Moderate Disagreement","Moderate Disagreement","Moderate Disagreement"
"57","A16Z9FSSF1X74O:3D8YOU6S9FQM87JIZVUJ6EYGAQ46UF","1",2,9,3,"50","<p style=""font-size:100px""><b>V</b></p><p style=""position: absolute; top: 30px; right: 30px; text-align:right; font-size:50px"""">N = 3</p>","V",0,69,824.70000000298,0,"agree",11,13,16,11,16,"52","Female","Everything was clear. Thank you, and have a nice day!","Moderate Agreement","Moderate Agreement","Moderate Disagreement","Moderate Disagreement","Moderate Disagreement","Slight Disagreement","Moderate Disagreement","Neither Agreement nor Disagreement","Strong Disagreement","Strong Agreement","Moderate Agreement","Strong Disagreement","Strong Agreement","Strong Agreement","Strong Agreement","Moderate Disagreement","Moderate Disagreement","Moderate Disagreement"
"58","A16Z9FSSF1X74O:3D8YOU6S9FQM87JIZVUJ6EYGAQ46UF","1",2,10,3,"50","<p style=""font-size:100px""><b>V</b></p><p style=""position: absolute; top: 30px; right: 30px; text-align:right; font-size:50px"""">N = 3</p>","V",0,69,958.70000000298,0,"agree",11,13,16,11,16,"52","Female","Everything was clear. Thank you, and have a nice day!","Moderate Agreement","Moderate Agreement","Moderate Disagreement","Moderate Disagreement","Moderate Disagreement","Slight Disagreement","Moderate Disagreement","Neither Agreement nor Disagreement","Strong Disagreement","Strong Agreement","Moderate Agreement","Strong Disagreement","Strong Agreement","Strong Agreement","Strong Agreement","Moderate Disagreement","Moderate Disagreement","Moderate Disagreement"
"59","A16Z9FSSF1X74O:3D8YOU6S9FQM87JIZVUJ6EYGAQ46UF","1",2,11,3,"50","<p style=""font-size:100px""><b>T</b></p><p style=""position: absolute; top: 30px; right: 30px; text-align:right; font-size:50px"""">N = 3</p>","T",0,73,895.40000000596,1,"agree",11,13,16,11,16,"52","Female","Everything was clear. Thank you, and have a nice day!","Moderate Agreement","Moderate Agreement","Moderate Disagreement","Moderate Disagreement","Moderate Disagreement","Slight Disagreement","Moderate Disagreement","Neither Agreement nor Disagreement","Strong Disagreement","Strong Agreement","Moderate Agreement","Strong Disagreement","Strong Agreement","Strong Agreement","Strong Agreement","Moderate Disagreement","Moderate Disagreement","Moderate Disagreement"
"60","A16Z9FSSF1X74O:3D8YOU6S9FQM87JIZVUJ6EYGAQ46UF","1",2,12,3,"50","<p style=""font-size:100px""><b>b</b></p><p style=""position: absolute; top: 30px; right: 30px; text-align:right; font-size:50px"""">N = 3</p>","b",0,73,846.199999988079,1,"agree",11,13,16,11,16,"52","Female","Everything was clear. Thank you, and have a nice day!","Moderate Agreement","Moderate Agreement","Moderate Disagreement","Moderate Disagreement","Moderate Disagreement","Slight Disagreement","Moderate Disagreement","Neither Agreement nor Disagreement","Strong Disagreement","Strong Agreement","Moderate Agreement","Strong Disagreement","Strong Agreement","Strong Agreement","Strong Agreement","Moderate Disagreement","Moderate Disagreement","Moderate Disagreement"
"61","A16Z9FSSF1X74O:3D8YOU6S9FQM87JIZVUJ6EYGAQ46UF","1",3,1,1,"5","<p style=""font-size:100px""><b>G</b></p><p style=""position: absolute; top: 30px; right: 30px; text-align:right; font-size:50px"""">N = 1</p>","G",0,73,542.90000000596,1,"agree",19,3,3,11,4,"52","Female","Everything was clear. Thank you, and have a nice day!","Moderate Agreement","Moderate Agreement","Moderate Disagreement","Moderate Disagreement","Moderate Disagreement","Slight Disagreement","Moderate Disagreement","Neither Agreement nor Disagreement","Strong Disagreement","Strong Agreement","Moderate Agreement","Strong Disagreement","Strong Agreement","Strong Agreement","Strong Agreement","Moderate Disagreement","Moderate Disagreement","Moderate Disagreement"
"62","A16Z9FSSF1X74O:3D8YOU6S9FQM87JIZVUJ6EYGAQ46UF","1",3,2,1,"5","<p style=""font-size:100px""><b>P</b></p><p style=""position: absolute; top: 30px; right: 30px; text-align:right; font-size:50px"""">N = 1</p>","P",0,73,695.90000000596,1,"agree",19,3,3,11,4,"52","Female","Everything was clear. Thank you, and have a nice day!","Moderate Agreement","Moderate Agreement","Moderate Disagreement","Moderate Disagreement","Moderate Disagreement","Slight Disagreement","Moderate Disagreement","Neither Agreement nor Disagreement","Strong Disagreement","Strong Agreement","Moderate Agreement","Strong Disagreement","Strong Agreement","Strong Agreement","Strong Agreement","Moderate Disagreement","Moderate Disagreement","Moderate Disagreement"
"63","A16Z9FSSF1X74O:3D8YOU6S9FQM87JIZVUJ6EYGAQ46UF","1",3,3,1,"5","<p style=""font-size:100px""><b>P</b></p><p style=""position: absolute; top: 30px; right: 30px; text-align:right; font-size:50px"""">N = 1</p>","P",0,69,590.59999999404,0,"agree",19,3,3,11,4,"52","Female","Everything was clear. Thank you, and have a nice day!","Moderate Agreement","Moderate Agreement","Moderate Disagreement","Moderate Disagreement","Moderate Disagreement","Slight Disagreement","Moderate Disagreement","Neither Agreement nor Disagreement","Strong Disagreement","Strong Agreement","Moderate Agreement","Strong Disagreement","Strong Agreement","Strong Agreement","Strong Agreement","Moderate Disagreement","Moderate Disagreement","Moderate Disagreement"
"64","A16Z9FSSF1X74O:3D8YOU6S9FQM87JIZVUJ6EYGAQ46UF","1",3,4,1,"5","<p style=""font-size:100px""><b>P</b></p><p style=""position: absolute; top: 30px; right: 30px; text-align:right; font-size:50px"""">N = 1</p>","P",0,69,528,0,"agree",19,3,3,11,4,"52","Female","Everything was clear. Thank you, and have a nice day!","Moderate Agreement","Moderate Agreement","Moderate Disagreement","Moderate Disagreement","Moderate Disagreement","Slight Disagreement","Moderate Disagreement","Neither Agreement nor Disagreement","Strong Disagreement","Strong Agreement","Moderate Agreement","Strong Disagreement","Strong Agreement","Strong Agreement","Strong Agreement","Moderate Disagreement","Moderate Disagreement","Moderate Disagreement"
"65","A16Z9FSSF1X74O:3D8YOU6S9FQM87JIZVUJ6EYGAQ46UF","1",3,5,1,"5","<p style=""font-size:100px""><b>b</b></p><p style=""position: absolute; top: 30px; right: 30px; text-align:right; font-size:50px"""">N = 1</p>","b",0,73,527.79999999702,1,"agree",19,3,3,11,4,"52","Female","Everything was clear. Thank you, and have a nice day!","Moderate Agreement","Moderate Agreement","Moderate Disagreement","Moderate Disagreement","Moderate Disagreement","Slight Disagreement","Moderate Disagreement","Neither Agreement nor Disagreement","Strong Disagreement","Strong Agreement","Moderate Agreement","Strong Disagreement","Strong Agreement","Strong Agreement","Strong Agreement","Moderate Disagreement","Moderate Disagreement","Moderate Disagreement"
"66","A16Z9FSSF1X74O:3D8YOU6S9FQM87JIZVUJ6EYGAQ46UF","1",3,6,1,"5","<p style=""font-size:100px""><b>G</b></p><p style=""position: absolute; top: 30px; right: 30px; text-align:right; font-size:50px"""">N = 1</p>","G",0,73,512.20000000298,1,"agree",19,3,3,11,4,"52","Female","Everything was clear. Thank you, and have a nice day!","Moderate Agreement","Moderate Agreement","Moderate Disagreement","Moderate Disagreement","Moderate Disagreement","Slight Disagreement","Moderate Disagreement","Neither Agreement nor Disagreement","Strong Disagreement","Strong Agreement","Moderate Agreement","Strong Disagreement","Strong Agreement","Strong Agreement","Strong Agreement","Moderate Disagreement","Moderate Disagreement","Moderate Disagreement"
"67","A16Z9FSSF1X74O:3D8YOU6S9FQM87JIZVUJ6EYGAQ46UF","1",3,7,1,"5","<p style=""font-size:100px""><b>v</b></p><p style=""position: absolute; top: 30px; right: 30px; text-align:right; font-size:50px"""">N = 1</p>","v",0,73,496.899999991059,1,"agree",19,3,3,11,4,"52","Female","Everything was clear. Thank you, and have a nice day!","Moderate Agreement","Moderate Agreement","Moderate Disagreement","Moderate Disagreement","Moderate Disagreement","Slight Disagreement","Moderate Disagreement","Neither Agreement nor Disagreement","Strong Disagreement","Strong Agreement","Moderate Agreement","Strong Disagreement","Strong Agreement","Strong Agreement","Strong Agreement","Moderate Disagreement","Moderate Disagreement","Moderate Disagreement"
"68","A16Z9FSSF1X74O:3D8YOU6S9FQM87JIZVUJ6EYGAQ46UF","1",3,8,1,"5","<p style=""font-size:100px""><b>v</b></p><p style=""position: absolute; top: 30px; right: 30px; text-align:right; font-size:50px"""">N = 1</p>","v",0,69,423.70000000298,0,"agree",19,3,3,11,4,"52","Female","Everything was clear. Thank you, and have a nice day!","Moderate Agreement","Moderate Agreement","Moderate Disagreement","Moderate Disagreement","Moderate Disagreement","Slight Disagreement","Moderate Disagreement","Neither Agreement nor Disagreement","Strong Disagreement","Strong Agreement","Moderate Agreement","Strong Disagreement","Strong Agreement","Strong Agreement","Strong Agreement","Moderate Disagreement","Moderate Disagreement","Moderate Disagreement"
"69","A16Z9FSSF1X74O:3D8YOU6S9FQM87JIZVUJ6EYGAQ46UF","1",3,9,1,"5","<p style=""font-size:100px""><b>g</b></p><p style=""position: absolute; top: 30px; right: 30px; text-align:right; font-size:50px"""">N = 1</p>","g",0,73,366.100000008941,1,"agree",19,3,3,11,4,"52","Female","Everything was clear. Thank you, and have a nice day!","Moderate Agreement","Moderate Agreement","Moderate Disagreement","Moderate Disagreement","Moderate Disagreement","Slight Disagreement","Moderate Disagreement","Neither Agreement nor Disagreement","Strong Disagreement","Strong Agreement","Moderate Agreement","Strong Disagreement","Strong Agreement","Strong Agreement","Strong Agreement","Moderate Disagreement","Moderate Disagreement","Moderate Disagreement"
"70","A16Z9FSSF1X74O:3D8YOU6S9FQM87JIZVUJ6EYGAQ46UF","1",3,10,1,"5","<p style=""font-size:100px""><b>g</b></p><p style=""position: absolute; top: 30px; right: 30px; text-align:right; font-size:50px"""">N = 1</p>","g",0,69,454.300000011921,0,"agree",19,3,3,11,4,"52","Female","Everything was clear. Thank you, and have a nice day!","Moderate Agreement","Moderate Agreement","Moderate Disagreement","Moderate Disagreement","Moderate Disagreement","Slight Disagreement","Moderate Disagreement","Neither Agreement nor Disagreement","Strong Disagreement","Strong Agreement","Moderate Agreement","Strong Disagreement","Strong Agreement","Strong Agreement","Strong Agreement","Moderate Disagreement","Moderate Disagreement","Moderate Disagreement"
"71","A16Z9FSSF1X74O:3D8YOU6S9FQM87JIZVUJ6EYGAQ46UF","1",3,11,1,"5","<p style=""font-size:100px""><b>p</b></p><p style=""position: absolute; top: 30px; right: 30px; text-align:right; font-size:50px"""">N = 1</p>","p",0,73,413.20000000298,1,"agree",19,3,3,11,4,"52","Female","Everything was clear. Thank you, and have a nice day!","Moderate Agreement","Moderate Agreement","Moderate Disagreement","Moderate Disagreement","Moderate Disagreement","Slight Disagreement","Moderate Disagreement","Neither Agreement nor Disagreement","Strong Disagreement","Strong Agreement","Moderate Agreement","Strong Disagreement","Strong Agreement","Strong Agreement","Strong Agreement","Moderate Disagreement","Moderate Disagreement","Moderate Disagreement"
"72","A16Z9FSSF1X74O:3D8YOU6S9FQM87JIZVUJ6EYGAQ46UF","1",3,12,1,"5","<p style=""font-size:100px""><b>V</b></p><p style=""position: absolute; top: 30px; right: 30px; text-align:right; font-size:50px"""">N = 1</p>","V",0,73,459,1,"agree",19,3,3,11,4,"52","Female","Everything was clear. Thank you, and have a nice day!","Moderate Agreement","Moderate Agreement","Moderate Disagreement","Moderate Disagreement","Moderate Disagreement","Slight Disagreement","Moderate Disagreement","Neither Agreement nor Disagreement","Strong Disagreement","Strong Agreement","Moderate Agreement","Strong Disagreement","Strong Agreement","Strong Agreement","Strong Agreement","Moderate Disagreement","Moderate Disagreement","Moderate Disagreement"
"73","A16Z9FSSF1X74O:3D8YOU6S9FQM87JIZVUJ6EYGAQ46UF","1",4,1,1,"50","<p style=""font-size:100px""><b>D</b></p><p style=""position: absolute; top: 30px; right: 30px; text-align:right; font-size:50px"""">N = 1</p>","D",0,73,446.90000000596,1,"agree",15,3,3,11,3,"52","Female","Everything was clear. Thank you, and have a nice day!","Moderate Agreement","Moderate Agreement","Moderate Disagreement","Moderate Disagreement","Moderate Disagreement","Slight Disagreement","Moderate Disagreement","Neither Agreement nor Disagreement","Strong Disagreement","Strong Agreement","Moderate Agreement","Strong Disagreement","Strong Agreement","Strong Agreement","Strong Agreement","Moderate Disagreement","Moderate Disagreement","Moderate Disagreement"
"74","A16Z9FSSF1X74O:3D8YOU6S9FQM87JIZVUJ6EYGAQ46UF","1",4,2,1,"50","<p style=""font-size:100px""><b>p</b></p><p style=""position: absolute; top: 30px; right: 30px; text-align:right; font-size:50px"""">N = 1</p>","p",0,73,542.79999999702,1,"agree",15,3,3,11,3,"52","Female","Everything was clear. Thank you, and have a nice day!","Moderate Agreement","Moderate Agreement","Moderate Disagreement","Moderate Disagreement","Moderate Disagreement","Slight Disagreement","Moderate Disagreement","Neither Agreement nor Disagreement","Strong Disagreement","Strong Agreement","Moderate Agreement","Strong Disagreement","Strong Agreement","Strong Agreement","Strong Agreement","Moderate Disagreement","Moderate Disagreement","Moderate Disagreement"
"75","A16Z9FSSF1X74O:3D8YOU6S9FQM87JIZVUJ6EYGAQ46UF","1",4,3,1,"50","<p style=""font-size:100px""><b>p</b></p><p style=""position: absolute; top: 30px; right: 30px; text-align:right; font-size:50px"""">N = 1</p>","p",0,69,437.79999999702,0,"agree",15,3,3,11,3,"52","Female","Everything was clear. Thank you, and have a nice day!","Moderate Agreement","Moderate Agreement","Moderate Disagreement","Moderate Disagreement","Moderate Disagreement","Slight Disagreement","Moderate Disagreement","Neither Agreement nor Disagreement","Strong Disagreement","Strong Agreement","Moderate Agreement","Strong Disagreement","Strong Agreement","Strong Agreement","Strong Agreement","Moderate Disagreement","Moderate Disagreement","Moderate Disagreement"
"76","A16Z9FSSF1X74O:3D8YOU6S9FQM87JIZVUJ6EYGAQ46UF","1",4,4,1,"50","<p style=""font-size:100px""><b>t</b></p><p style=""position: absolute; top: 30px; right: 30px; text-align:right; font-size:50px"""">N = 1</p>","t",0,73,452.70000000298,1,"agree",15,3,3,11,3,"52","Female","Everything was clear. Thank you, and have a nice day!","Moderate Agreement","Moderate Agreement","Moderate Disagreement","Moderate Disagreement","Moderate Disagreement","Slight Disagreement","Moderate Disagreement","Neither Agreement nor Disagreement","Strong Disagreement","Strong Agreement","Moderate Agreement","Strong Disagreement","Strong Agreement","Strong Agreement","Strong Agreement","Moderate Disagreement","Moderate Disagreement","Moderate Disagreement"
"77","A16Z9FSSF1X74O:3D8YOU6S9FQM87JIZVUJ6EYGAQ46UF","1",4,5,1,"50","<p style=""font-size:100px""><b>P</b></p><p style=""position: absolute; top: 30px; right: 30px; text-align:right; font-size:50px"""">N = 1</p>","P",0,73,667.600000008941,1,"agree",15,3,3,11,3,"52","Female","Everything was clear. Thank you, and have a nice day!","Moderate Agreement","Moderate Agreement","Moderate Disagreement","Moderate Disagreement","Moderate Disagreement","Slight Disagreement","Moderate Disagreement","Neither Agreement nor Disagreement","Strong Disagreement","Strong Agreement","Moderate Agreement","Strong Disagreement","Strong Agreement","Strong Agreement","Strong Agreement","Moderate Disagreement","Moderate Disagreement","Moderate Disagreement"
"78","A16Z9FSSF1X74O:3D8YOU6S9FQM87JIZVUJ6EYGAQ46UF","1",4,6,1,"50","<p style=""font-size:100px""><b>g</b></p><p style=""position: absolute; top: 30px; right: 30px; text-align:right; font-size:50px"""">N = 1</p>","g",0,73,666.29999999702,1,"agree",15,3,3,11,3,"52","Female","Everything was clear. Thank you, and have a nice day!","Moderate Agreement","Moderate Agreement","Moderate Disagreement","Moderate Disagreement","Moderate Disagreement","Slight Disagreement","Moderate Disagreement","Neither Agreement nor Disagreement","Strong Disagreement","Strong Agreement","Moderate Agreement","Strong Disagreement","Strong Agreement","Strong Agreement","Strong Agreement","Moderate Disagreement","Moderate Disagreement","Moderate Disagreement"
"79","A16Z9FSSF1X74O:3D8YOU6S9FQM87JIZVUJ6EYGAQ46UF","1",4,7,1,"50","<p style=""font-size:100px""><b>g</b></p><p style=""position: absolute; top: 30px; right: 30px; text-align:right; font-size:50px"""">N = 1</p>","g",0,69,489.399999991059,0,"agree",15,3,3,11,3,"52","Female","Everything was clear. Thank you, and have a nice day!","Moderate Agreement","Moderate Agreement","Moderate Disagreement","Moderate Disagreement","Moderate Disagreement","Slight Disagreement","Moderate Disagreement","Neither Agreement nor Disagreement","Strong Disagreement","Strong Agreement","Moderate Agreement","Strong Disagreement","Strong Agreement","Strong Agreement","Strong Agreement","Moderate Disagreement","Moderate Disagreement","Moderate Disagreement"
"80","A16Z9FSSF1X74O:3D8YOU6S9FQM87JIZVUJ6EYGAQ46UF","1",4,8,1,"50","<p style=""font-size:100px""><b>g</b></p><p style=""position: absolute; top: 30px; right: 30px; text-align:right; font-size:50px"""">N = 1</p>","g",0,69,497.70000000298,0,"agree",15,3,3,11,3,"52","Female","Everything was clear. Thank you, and have a nice day!","Moderate Agreement","Moderate Agreement","Moderate Disagreement","Moderate Disagreement","Moderate Disagreement","Slight Disagreement","Moderate Disagreement","Neither Agreement nor Disagreement","Strong Disagreement","Strong Agreement","Moderate Agreement","Strong Disagreement","Strong Agreement","Strong Agreement","Strong Agreement","Moderate Disagreement","Moderate Disagreement","Moderate Disagreement"
"81","A16Z9FSSF1X74O:3D8YOU6S9FQM87JIZVUJ6EYGAQ46UF","1",4,9,1,"50","<p style=""font-size:100px""><b>v</b></p><p style=""position: absolute; top: 30px; right: 30px; text-align:right; font-size:50px"""">N = 1</p>","v",0,73,431.79999999702,1,"agree",15,3,3,11,3,"52","Female","Everything was clear. Thank you, and have a nice day!","Moderate Agreement","Moderate Agreement","Moderate Disagreement","Moderate Disagreement","Moderate Disagreement","Slight Disagreement","Moderate Disagreement","Neither Agreement nor Disagreement","Strong Disagreement","Strong Agreement","Moderate Agreement","Strong Disagreement","Strong Agreement","Strong Agreement","Strong Agreement","Moderate Disagreement","Moderate Disagreement","Moderate Disagreement"
"82","A16Z9FSSF1X74O:3D8YOU6S9FQM87JIZVUJ6EYGAQ46UF","1",4,10,1,"50","<p style=""font-size:100px""><b>P</b></p><p style=""position: absolute; top: 30px; right: 30px; text-align:right; font-size:50px"""">N = 1</p>","P",0,73,494.70000000298,1,"agree",15,3,3,11,3,"52","Female","Everything was clear. Thank you, and have a nice day!","Moderate Agreement","Moderate Agreement","Moderate Disagreement","Moderate Disagreement","Moderate Disagreement","Slight Disagreement","Moderate Disagreement","Neither Agreement nor Disagreement","Strong Disagreement","Strong Agreement","Moderate Agreement","Strong Disagreement","Strong Agreement","Strong Agreement","Strong Agreement","Moderate Disagreement","Moderate Disagreement","Moderate Disagreement"
"83","A16Z9FSSF1X74O:3D8YOU6S9FQM87JIZVUJ6EYGAQ46UF","1",4,11,1,"50","<p style=""font-size:100px""><b>P</b></p><p style=""position: absolute; top: 30px; right: 30px; text-align:right; font-size:50px"""">N = 1</p>","P",0,73,517.70000000298,1,"agree",15,3,3,11,3,"52","Female","Everything was clear. Thank you, and have a nice day!","Moderate Agreement","Moderate Agreement","Moderate Disagreement","Moderate Disagreement","Moderate Disagreement","Slight Disagreement","Moderate Disagreement","Neither Agreement nor Disagreement","Strong Disagreement","Strong Agreement","Moderate Agreement","Strong Disagreement","Strong Agreement","Strong Agreement","Strong Agreement","Moderate Disagreement","Moderate Disagreement","Moderate Disagreement"
"84","A16Z9FSSF1X74O:3D8YOU6S9FQM87JIZVUJ6EYGAQ46UF","1",4,12,1,"50","<p style=""font-size:100px""><b>D</b></p><p style=""position: absolute; top: 30px; right: 30px; text-align:right; font-size:50px"""">N = 1</p>","D",0,73,645.399999991059,1,"agree",15,3,3,11,3,"52","Female","Everything was clear. Thank you, and have a nice day!","Moderate Agreement","Moderate Agreement","Moderate Disagreement","Moderate Disagreement","Moderate Disagreement","Slight Disagreement","Moderate Disagreement","Neither Agreement nor Disagreement","Strong Disagreement","Strong Agreement","Moderate Agreement","Strong Disagreement","Strong Agreement","Strong Agreement","Strong Agreement","Moderate Disagreement","Moderate Disagreement","Moderate Disagreement"
"85","A16Z9FSSF1X74O:3D8YOU6S9FQM87JIZVUJ6EYGAQ46UF","1",5,1,1,"5","<p style=""font-size:100px""><b>D</b></p><p style=""position: absolute; top: 30px; right: 30px; text-align:right; font-size:50px"""">N = 1</p>","D",0,73,629.899999991059,1,"agree",11,3,3,11,3,"52","Female","Everything was clear. Thank you, and have a nice day!","Moderate Agreement","Moderate Agreement","Moderate Disagreement","Moderate Disagreement","Moderate Disagreement","Slight Disagreement","Moderate Disagreement","Neither Agreement nor Disagreement","Strong Disagreement","Strong Agreement","Moderate Agreement","Strong Disagreement","Strong Agreement","Strong Agreement","Strong Agreement","Moderate Disagreement","Moderate Disagreement","Moderate Disagreement"
"86","A16Z9FSSF1X74O:3D8YOU6S9FQM87JIZVUJ6EYGAQ46UF","1",5,2,1,"5","<p style=""font-size:100px""><b>D</b></p><p style=""position: absolute; top: 30px; right: 30px; text-align:right; font-size:50px"""">N = 1</p>","D",0,69,478.5,0,"agree",11,3,3,11,3,"52","Female","Everything was clear. Thank you, and have a nice day!","Moderate Agreement","Moderate Agreement","Moderate Disagreement","Moderate Disagreement","Moderate Disagreement","Slight Disagreement","Moderate Disagreement","Neither Agreement nor Disagreement","Strong Disagreement","Strong Agreement","Moderate Agreement","Strong Disagreement","Strong Agreement","Strong Agreement","Strong Agreement","Moderate Disagreement","Moderate Disagreement","Moderate Disagreement"
"87","A16Z9FSSF1X74O:3D8YOU6S9FQM87JIZVUJ6EYGAQ46UF","1",5,3,1,"5","<p style=""font-size:100px""><b>T</b></p><p style=""position: absolute; top: 30px; right: 30px; text-align:right; font-size:50px"""">N = 1</p>","T",0,73,423.09999999404,1,"agree",11,3,3,11,3,"52","Female","Everything was clear. Thank you, and have a nice day!","Moderate Agreement","Moderate Agreement","Moderate Disagreement","Moderate Disagreement","Moderate Disagreement","Slight Disagreement","Moderate Disagreement","Neither Agreement nor Disagreement","Strong Disagreement","Strong Agreement","Moderate Agreement","Strong Disagreement","Strong Agreement","Strong Agreement","Strong Agreement","Moderate Disagreement","Moderate Disagreement","Moderate Disagreement"
"88","A16Z9FSSF1X74O:3D8YOU6S9FQM87JIZVUJ6EYGAQ46UF","1",5,4,1,"5","<p style=""font-size:100px""><b>G</b></p><p style=""position: absolute; top: 30px; right: 30px; text-align:right; font-size:50px"""">N = 1</p>","G",0,73,470.5,1,"agree",11,3,3,11,3,"52","Female","Everything was clear. Thank you, and have a nice day!","Moderate Agreement","Moderate Agreement","Moderate Disagreement","Moderate Disagreement","Moderate Disagreement","Slight Disagreement","Moderate Disagreement","Neither Agreement nor Disagreement","Strong Disagreement","Strong Agreement","Moderate Agreement","Strong Disagreement","Strong Agreement","Strong Agreement","Strong Agreement","Moderate Disagreement","Moderate Disagreement","Moderate Disagreement"
"89","A16Z9FSSF1X74O:3D8YOU6S9FQM87JIZVUJ6EYGAQ46UF","1",5,5,1,"5","<p style=""font-size:100px""><b>B</b></p><p style=""position: absolute; top: 30px; right: 30px; text-align:right; font-size:50px"""">N = 1</p>","B",0,73,463.5,1,"agree",11,3,3,11,3,"52","Female","Everything was clear. Thank you, and have a nice day!","Moderate Agreement","Moderate Agreement","Moderate Disagreement","Moderate Disagreement","Moderate Disagreement","Slight Disagreement","Moderate Disagreement","Neither Agreement nor Disagreement","Strong Disagreement","Strong Agreement","Moderate Agreement","Strong Disagreement","Strong Agreement","Strong Agreement","Strong Agreement","Moderate Disagreement","Moderate Disagreement","Moderate Disagreement"
"90","A16Z9FSSF1X74O:3D8YOU6S9FQM87JIZVUJ6EYGAQ46UF","1",5,6,1,"5","<p style=""font-size:100px""><b>B</b></p><p style=""position: absolute; top: 30px; right: 30px; text-align:right; font-size:50px"""">N = 1</p>","B",0,73,488,1,"agree",11,3,3,11,3,"52","Female","Everything was clear. Thank you, and have a nice day!","Moderate Agreement","Moderate Agreement","Moderate Disagreement","Moderate Disagreement","Moderate Disagreement","Slight Disagreement","Moderate Disagreement","Neither Agreement nor Disagreement","Strong Disagreement","Strong Agreement","Moderate Agreement","Strong Disagreement","Strong Agreement","Strong Agreement","Strong Agreement","Moderate Disagreement","Moderate Disagreement","Moderate Disagreement"
"91","A16Z9FSSF1X74O:3D8YOU6S9FQM87JIZVUJ6EYGAQ46UF","1",5,7,1,"5","<p style=""font-size:100px""><b>B</b></p><p style=""position: absolute; top: 30px; right: 30px; text-align:right; font-size:50px"""">N = 1</p>","B",0,69,535.70000000298,0,"agree",11,3,3,11,3,"52","Female","Everything was clear. Thank you, and have a nice day!","Moderate Agreement","Moderate Agreement","Moderate Disagreement","Moderate Disagreement","Moderate Disagreement","Slight Disagreement","Moderate Disagreement","Neither Agreement nor Disagreement","Strong Disagreement","Strong Agreement","Moderate Agreement","Strong Disagreement","Strong Agreement","Strong Agreement","Strong Agreement","Moderate Disagreement","Moderate Disagreement","Moderate Disagreement"
"92","A16Z9FSSF1X74O:3D8YOU6S9FQM87JIZVUJ6EYGAQ46UF","1",5,8,1,"5","<p style=""font-size:100px""><b>t</b></p><p style=""position: absolute; top: 30px; right: 30px; text-align:right; font-size:50px"""">N = 1</p>","t",0,73,535.70000000298,1,"agree",11,3,3,11,3,"52","Female","Everything was clear. Thank you, and have a nice day!","Moderate Agreement","Moderate Agreement","Moderate Disagreement","Moderate Disagreement","Moderate Disagreement","Slight Disagreement","Moderate Disagreement","Neither Agreement nor Disagreement","Strong Disagreement","Strong Agreement","Moderate Agreement","Strong Disagreement","Strong Agreement","Strong Agreement","Strong Agreement","Moderate Disagreement","Moderate Disagreement","Moderate Disagreement"
"93","A16Z9FSSF1X74O:3D8YOU6S9FQM87JIZVUJ6EYGAQ46UF","1",5,9,1,"5","<p style=""font-size:100px""><b>v</b></p><p style=""position: absolute; top: 30px; right: 30px; text-align:right; font-size:50px"""">N = 1</p>","v",0,73,551.09999999404,1,"agree",11,3,3,11,3,"52","Female","Everything was clear. Thank you, and have a nice day!","Moderate Agreement","Moderate Agreement","Moderate Disagreement","Moderate Disagreement","Moderate Disagreement","Slight Disagreement","Moderate Disagreement","Neither Agreement nor Disagreement","Strong Disagreement","Strong Agreement","Moderate Agreement","Strong Disagreement","Strong Agreement","Strong Agreement","Strong Agreement","Moderate Disagreement","Moderate Disagreement","Moderate Disagreement"
"94","A16Z9FSSF1X74O:3D8YOU6S9FQM87JIZVUJ6EYGAQ46UF","1",5,10,1,"5","<p style=""font-size:100px""><b>G</b></p><p style=""position: absolute; top: 30px; right: 30px; text-align:right; font-size:50px"""">N = 1</p>","G",0,73,558.79999999702,1,"agree",11,3,3,11,3,"52","Female","Everything was clear. Thank you, and have a nice day!","Moderate Agreement","Moderate Agreement","Moderate Disagreement","Moderate Disagreement","Moderate Disagreement","Slight Disagreement","Moderate Disagreement","Neither Agreement nor Disagreement","Strong Disagreement","Strong Agreement","Moderate Agreement","Strong Disagreement","Strong Agreement","Strong Agreement","Strong Agreement","Moderate Disagreement","Moderate Disagreement","Moderate Disagreement"
"95","A16Z9FSSF1X74O:3D8YOU6S9FQM87JIZVUJ6EYGAQ46UF","1",5,11,1,"5","<p style=""font-size:100px""><b>P</b></p><p style=""position: absolute; top: 30px; right: 30px; text-align:right; font-size:50px"""">N = 1</p>","P",0,73,558.20000000298,1,"agree",11,3,3,11,3,"52","Female","Everything was clear. Thank you, and have a nice day!","Moderate Agreement","Moderate Agreement","Moderate Disagreement","Moderate Disagreement","Moderate Disagreement","Slight Disagreement","Moderate Disagreement","Neither Agreement nor Disagreement","Strong Disagreement","Strong Agreement","Moderate Agreement","Strong Disagreement","Strong Agreement","Strong Agreement","Strong Agreement","Moderate Disagreement","Moderate Disagreement","Moderate Disagreement"
"96","A16Z9FSSF1X74O:3D8YOU6S9FQM87JIZVUJ6EYGAQ46UF","1",5,12,1,"5","<p style=""font-size:100px""><b>P</b></p><p style=""position: absolute; top: 30px; right: 30px; text-align:right; font-size:50px"""">N = 1</p>","P",0,69,406.29999999702,0,"agree",11,3,3,11,3,"52","Female","Everything was clear. Thank you, and have a nice day!","Moderate Agreement","Moderate Agreement","Moderate Disagreement","Moderate Disagreement","Moderate Disagreement","Slight Disagreement","Moderate Disagreement","Neither Agreement nor Disagreement","Strong Disagreement","Strong Agreement","Moderate Agreement","Strong Disagreement","Strong Agreement","Strong Agreement","Strong Agreement","Moderate Disagreement","Moderate Disagreement","Moderate Disagreement"
"97","A16Z9FSSF1X74O:3D8YOU6S9FQM87JIZVUJ6EYGAQ46UF","1",6,1,3,"5","<p style=""font-size:100px""><b>G</b></p><p style=""position: absolute; top: 30px; right: 30px; text-align:right; font-size:50px"""">N = 3</p>","G",0,73,677.59999999404,1,"agree",11,3,17,11,17,"52","Female","Everything was clear. Thank you, and have a nice day!","Moderate Agreement","Moderate Agreement","Moderate Disagreement","Moderate Disagreement","Moderate Disagreement","Slight Disagreement","Moderate Disagreement","Neither Agreement nor Disagreement","Strong Disagreement","Strong Agreement","Moderate Agreement","Strong Disagreement","Strong Agreement","Strong Agreement","Strong Agreement","Moderate Disagreement","Moderate Disagreement","Moderate Disagreement"
"98","A16Z9FSSF1X74O:3D8YOU6S9FQM87JIZVUJ6EYGAQ46UF","1",6,2,3,"5","<p style=""font-size:100px""><b>B</b></p><p style=""position: absolute; top: 30px; right: 30px; text-align:right; font-size:50px"""">N = 3</p>","B",0,73,580.59999999404,1,"agree",11,3,17,11,17,"52","Female","Everything was clear. Thank you, and have a nice day!","Moderate Agreement","Moderate Agreement","Moderate Disagreement","Moderate Disagreement","Moderate Disagreement","Slight Disagreement","Moderate Disagreement","Neither Agreement nor Disagreement","Strong Disagreement","Strong Agreement","Moderate Agreement","Strong Disagreement","Strong Agreement","Strong Agreement","Strong Agreement","Moderate Disagreement","Moderate Disagreement","Moderate Disagreement"
"99","A16Z9FSSF1X74O:3D8YOU6S9FQM87JIZVUJ6EYGAQ46UF","1",6,3,3,"5","<p style=""font-size:100px""><b>p</b></p><p style=""position: absolute; top: 30px; right: 30px; text-align:right; font-size:50px"""">N = 3</p>","p",0,73,548.199999988079,1,"agree",11,3,17,11,17,"52","Female","Everything was clear. Thank you, and have a nice day!","Moderate Agreement","Moderate Agreement","Moderate Disagreement","Moderate Disagreement","Moderate Disagreement","Slight Disagreement","Moderate Disagreement","Neither Agreement nor Disagreement","Strong Disagreement","Strong Agreement","Moderate Agreement","Strong Disagreement","Strong Agreement","Strong Agreement","Strong Agreement","Moderate Disagreement","Moderate Disagreement","Moderate Disagreement"
"100","A16Z9FSSF1X74O:3D8YOU6S9FQM87JIZVUJ6EYGAQ46UF","1",6,4,3,"5","<p style=""font-size:100px""><b>b</b></p><p style=""position: absolute; top: 30px; right: 30px; text-align:right; font-size:50px"""">N = 3</p>","b",0,73,556.5,1,"agree",11,3,17,11,17,"52","Female","Everything was clear. Thank you, and have a nice day!","Moderate Agreement","Moderate Agreement","Moderate Disagreement","Moderate Disagreement","Moderate Disagreement","Slight Disagreement","Moderate Disagreement","Neither Agreement nor Disagreement","Strong Disagreement","Strong Agreement","Moderate Agreement","Strong Disagreement","Strong Agreement","Strong Agreement","Strong Agreement","Moderate Disagreement","Moderate Disagreement","Moderate Disagreement"
"101","A16Z9FSSF1X74O:3D8YOU6S9FQM87JIZVUJ6EYGAQ46UF","1",6,5,3,"5","<p style=""font-size:100px""><b>B</b></p><p style=""position: absolute; top: 30px; right: 30px; text-align:right; font-size:50px"""">N = 3</p>","B",0,69,794.79999999702,0,"agree",11,3,17,11,17,"52","Female","Everything was clear. Thank you, and have a nice day!","Moderate Agreement","Moderate Agreement","Moderate Disagreement","Moderate Disagreement","Moderate Disagreement","Slight Disagreement","Moderate Disagreement","Neither Agreement nor Disagreement","Strong Disagreement","Strong Agreement","Moderate Agreement","Strong Disagreement","Strong Agreement","Strong Agreement","Strong Agreement","Moderate Disagreement","Moderate Disagreement","Moderate Disagreement"
"102","A16Z9FSSF1X74O:3D8YOU6S9FQM87JIZVUJ6EYGAQ46UF","1",6,6,3,"5","<p style=""font-size:100px""><b>T</b></p><p style=""position: absolute; top: 30px; right: 30px; text-align:right; font-size:50px"""">N = 3</p>","T",0,73,729.79999999702,1,"agree",11,3,17,11,17,"52","Female","Everything was clear. Thank you, and have a nice day!","Moderate Agreement","Moderate Agreement","Moderate Disagreement","Moderate Disagreement","Moderate Disagreement","Slight Disagreement","Moderate Disagreement","Neither Agreement nor Disagreement","Strong Disagreement","Strong Agreement","Moderate Agreement","Strong Disagreement","Strong Agreement","Strong Agreement","Strong Agreement","Moderate Disagreement","Moderate Disagreement","Moderate Disagreement"
"103","A16Z9FSSF1X74O:3D8YOU6S9FQM87JIZVUJ6EYGAQ46UF","1",6,7,3,"5","<p style=""font-size:100px""><b>b</b></p><p style=""position: absolute; top: 30px; right: 30px; text-align:right; font-size:50px"""">N = 3</p>","b",0,73,849.5,1,"agree",11,3,17,11,17,"52","Female","Everything was clear. Thank you, and have a nice day!","Moderate Agreement","Moderate Agreement","Moderate Disagreement","Moderate Disagreement","Moderate Disagreement","Slight Disagreement","Moderate Disagreement","Neither Agreement nor Disagreement","Strong Disagreement","Strong Agreement","Moderate Agreement","Strong Disagreement","Strong Agreement","Strong Agreement","Strong Agreement","Moderate Disagreement","Moderate Disagreement","Moderate Disagreement"
"104","A16Z9FSSF1X74O:3D8YOU6S9FQM87JIZVUJ6EYGAQ46UF","1",6,8,3,"5","<p style=""font-size:100px""><b>d</b></p><p style=""position: absolute; top: 30px; right: 30px; text-align:right; font-size:50px"""">N = 3</p>","d",0,73,826.800000011921,1,"agree",11,3,17,11,17,"52","Female","Everything was clear. Thank you, and have a nice day!","Moderate Agreement","Moderate Agreement","Moderate Disagreement","Moderate Disagreement","Moderate Disagreement","Slight Disagreement","Moderate Disagreement","Neither Agreement nor Disagreement","Strong Disagreement","Strong Agreement","Moderate Agreement","Strong Disagreement","Strong Agreement","Strong Agreement","Strong Agreement","Moderate Disagreement","Moderate Disagreement","Moderate Disagreement"
"105","A16Z9FSSF1X74O:3D8YOU6S9FQM87JIZVUJ6EYGAQ46UF","1",6,9,3,"5","<p style=""font-size:100px""><b>P</b></p><p style=""position: absolute; top: 30px; right: 30px; text-align:right; font-size:50px"""">N = 3</p>","P",0,73,899.29999999702,1,"agree",11,3,17,11,17,"52","Female","Everything was clear. Thank you, and have a nice day!","Moderate Agreement","Moderate Agreement","Moderate Disagreement","Moderate Disagreement","Moderate Disagreement","Slight Disagreement","Moderate Disagreement","Neither Agreement nor Disagreement","Strong Disagreement","Strong Agreement","Moderate Agreement","Strong Disagreement","Strong Agreement","Strong Agreement","Strong Agreement","Moderate Disagreement","Moderate Disagreement","Moderate Disagreement"
"106","A16Z9FSSF1X74O:3D8YOU6S9FQM87JIZVUJ6EYGAQ46UF","1",6,10,3,"5","<p style=""font-size:100px""><b>b</b></p><p style=""position: absolute; top: 30px; right: 30px; text-align:right; font-size:50px"""">N = 3</p>","b",0,69,643.300000011921,0,"agree",11,3,17,11,17,"52","Female","Everything was clear. Thank you, and have a nice day!","Moderate Agreement","Moderate Agreement","Moderate Disagreement","Moderate Disagreement","Moderate Disagreement","Slight Disagreement","Moderate Disagreement","Neither Agreement nor Disagreement","Strong Disagreement","Strong Agreement","Moderate Agreement","Strong Disagreement","Strong Agreement","Strong Agreement","Strong Agreement","Moderate Disagreement","Moderate Disagreement","Moderate Disagreement"
"107","A16Z9FSSF1X74O:3D8YOU6S9FQM87JIZVUJ6EYGAQ46UF","1",6,11,3,"5","<p style=""font-size:100px""><b>V</b></p><p style=""position: absolute; top: 30px; right: 30px; text-align:right; font-size:50px"""">N = 3</p>","V",0,73,665.699999988079,1,"agree",11,3,17,11,17,"52","Female","Everything was clear. Thank you, and have a nice day!","Moderate Agreement","Moderate Agreement","Moderate Disagreement","Moderate Disagreement","Moderate Disagreement","Slight Disagreement","Moderate Disagreement","Neither Agreement nor Disagreement","Strong Disagreement","Strong Agreement","Moderate Agreement","Strong Disagreement","Strong Agreement","Strong Agreement","Strong Agreement","Moderate Disagreement","Moderate Disagreement","Moderate Disagreement"
"108","A16Z9FSSF1X74O:3D8YOU6S9FQM87JIZVUJ6EYGAQ46UF","1",6,12,3,"5","<p style=""font-size:100px""><b>P</b></p><p style=""position: absolute; top: 30px; right: 30px; text-align:right; font-size:50px"""">N = 3</p>","P",0,69,672.29999999702,0,"agree",11,3,17,11,17,"52","Female","Everything was clear. Thank you, and have a nice day!","Moderate Agreement","Moderate Agreement","Moderate Disagreement","Moderate Disagreement","Moderate Disagreement","Slight Disagreement","Moderate Disagreement","Neither Agreement nor Disagreement","Strong Disagreement","Strong Agreement","Moderate Agreement","Strong Disagreement","Strong Agreement","Strong Agreement","Strong Agreement","Moderate Disagreement","Moderate Disagreement","Moderate Disagreement"
"109","A16Z9FSSF1X74O:3D8YOU6S9FQM87JIZVUJ6EYGAQ46UF","2",7,1,2,"5","<p style=""font-size:100px""><b>V</b></p><p style=""position: absolute; top: 30px; right: 30px; text-align:right; font-size:50px"""">N = 2</p>","V",0,73,431.20000000298,1,"agree",7,7,14,11,16,"52","Female","Everything was clear. Thank you, and have a nice day!","Moderate Agreement","Moderate Agreement","Moderate Disagreement","Moderate Disagreement","Moderate Disagreement","Slight Disagreement","Moderate Disagreement","Neither Agreement nor Disagreement","Strong Disagreement","Strong Agreement","Moderate Agreement","Strong Disagreement","Strong Agreement","Strong Agreement","Strong Agreement","Moderate Disagreement","Moderate Disagreement","Moderate Disagreement"
"110","A16Z9FSSF1X74O:3D8YOU6S9FQM87JIZVUJ6EYGAQ46UF","2",7,2,2,"5","<p style=""font-size:100px""><b>b</b></p><p style=""position: absolute; top: 30px; right: 30px; text-align:right; font-size:50px"""">N = 2</p>","b",0,69,550,0,"agree",7,7,14,11,16,"52","Female","Everything was clear. Thank you, and have a nice day!","Moderate Agreement","Moderate Agreement","Moderate Disagreement","Moderate Disagreement","Moderate Disagreement","Slight Disagreement","Moderate Disagreement","Neither Agreement nor Disagreement","Strong Disagreement","Strong Agreement","Moderate Agreement","Strong Disagreement","Strong Agreement","Strong Agreement","Strong Agreement","Moderate Disagreement","Moderate Disagreement","Moderate Disagreement"
"111","A16Z9FSSF1X74O:3D8YOU6S9FQM87JIZVUJ6EYGAQ46UF","2",7,3,2,"5","<p style=""font-size:100px""><b>T</b></p><p style=""position: absolute; top: 30px; right: 30px; text-align:right; font-size:50px"""">N = 2</p>","T",0,73,613,1,"agree",7,7,14,11,16,"52","Female","Everything was clear. Thank you, and have a nice day!","Moderate Agreement","Moderate Agreement","Moderate Disagreement","Moderate Disagreement","Moderate Disagreement","Slight Disagreement","Moderate Disagreement","Neither Agreement nor Disagreement","Strong Disagreement","Strong Agreement","Moderate Agreement","Strong Disagreement","Strong Agreement","Strong Agreement","Strong Agreement","Moderate Disagreement","Moderate Disagreement","Moderate Disagreement"
"112","A16Z9FSSF1X74O:3D8YOU6S9FQM87JIZVUJ6EYGAQ46UF","2",7,4,2,"5","<p style=""font-size:100px""><b>b</b></p><p style=""position: absolute; top: 30px; right: 30px; text-align:right; font-size:50px"""">N = 2</p>","b",0,69,676,0,"agree",7,7,14,11,16,"52","Female","Everything was clear. Thank you, and have a nice day!","Moderate Agreement","Moderate Agreement","Moderate Disagreement","Moderate Disagreement","Moderate Disagreement","Slight Disagreement","Moderate Disagreement","Neither Agreement nor Disagreement","Strong Disagreement","Strong Agreement","Moderate Agreement","Strong Disagreement","Strong Agreement","Strong Agreement","Strong Agreement","Moderate Disagreement","Moderate Disagreement","Moderate Disagreement"
"113","A16Z9FSSF1X74O:3D8YOU6S9FQM87JIZVUJ6EYGAQ46UF","2",7,5,2,"5","<p style=""font-size:100px""><b>b</b></p><p style=""position: absolute; top: 30px; right: 30px; text-align:right; font-size:50px"""">N = 2</p>","b",0,73,899.09999999404,1,"agree",7,7,14,11,16,"52","Female","Everything was clear. Thank you, and have a nice day!","Moderate Agreement","Moderate Agreement","Moderate Disagreement","Moderate Disagreement","Moderate Disagreement","Slight Disagreement","Moderate Disagreement","Neither Agreement nor Disagreement","Strong Disagreement","Strong Agreement","Moderate Agreement","Strong Disagreement","Strong Agreement","Strong Agreement","Strong Agreement","Moderate Disagreement","Moderate Disagreement","Moderate Disagreement"
"114","A16Z9FSSF1X74O:3D8YOU6S9FQM87JIZVUJ6EYGAQ46UF","2",7,6,2,"5","<p style=""font-size:100px""><b>b</b></p><p style=""position: absolute; top: 30px; right: 30px; text-align:right; font-size:50px"""">N = 2</p>","b",0,69,643.399999991059,0,"agree",7,7,14,11,16,"52","Female","Everything was clear. Thank you, and have a nice day!","Moderate Agreement","Moderate Agreement","Moderate Disagreement","Moderate Disagreement","Moderate Disagreement","Slight Disagreement","Moderate Disagreement","Neither Agreement nor Disagreement","Strong Disagreement","Strong Agreement","Moderate Agreement","Strong Disagreement","Strong Agreement","Strong Agreement","Strong Agreement","Moderate Disagreement","Moderate Disagreement","Moderate Disagreement"
"115","A16Z9FSSF1X74O:3D8YOU6S9FQM87JIZVUJ6EYGAQ46UF","2",7,7,2,"5","<p style=""font-size:100px""><b>P</b></p><p style=""position: absolute; top: 30px; right: 30px; text-align:right; font-size:50px"""">N = 2</p>","P",0,73,473.79999999702,1,"agree",7,7,14,11,16,"52","Female","Everything was clear. Thank you, and have a nice day!","Moderate Agreement","Moderate Agreement","Moderate Disagreement","Moderate Disagreement","Moderate Disagreement","Slight Disagreement","Moderate Disagreement","Neither Agreement nor Disagreement","Strong Disagreement","Strong Agreement","Moderate Agreement","Strong Disagreement","Strong Agreement","Strong Agreement","Strong Agreement","Moderate Disagreement","Moderate Disagreement","Moderate Disagreement"
"116","A16Z9FSSF1X74O:3D8YOU6S9FQM87JIZVUJ6EYGAQ46UF","2",7,8,2,"5","<p style=""font-size:100px""><b>p</b></p><p style=""position: absolute; top: 30px; right: 30px; text-align:right; font-size:50px"""">N = 2</p>","p",0,73,857.90000000596,1,"agree",7,7,14,11,16,"52","Female","Everything was clear. Thank you, and have a nice day!","Moderate Agreement","Moderate Agreement","Moderate Disagreement","Moderate Disagreement","Moderate Disagreement","Slight Disagreement","Moderate Disagreement","Neither Agreement nor Disagreement","Strong Disagreement","Strong Agreement","Moderate Agreement","Strong Disagreement","Strong Agreement","Strong Agreement","Strong Agreement","Moderate Disagreement","Moderate Disagreement","Moderate Disagreement"
"117","A16Z9FSSF1X74O:3D8YOU6S9FQM87JIZVUJ6EYGAQ46UF","2",7,9,2,"5","<p style=""font-size:100px""><b>P</b></p><p style=""position: absolute; top: 30px; right: 30px; text-align:right; font-size:50px"""">N = 2</p>","P",0,69,529.79999999702,0,"agree",7,7,14,11,16,"52","Female","Everything was clear. Thank you, and have a nice day!","Moderate Agreement","Moderate Agreement","Moderate Disagreement","Moderate Disagreement","Moderate Disagreement","Slight Disagreement","Moderate Disagreement","Neither Agreement nor Disagreement","Strong Disagreement","Strong Agreement","Moderate Agreement","Strong Disagreement","Strong Agreement","Strong Agreement","Strong Agreement","Moderate Disagreement","Moderate Disagreement","Moderate Disagreement"
"118","A16Z9FSSF1X74O:3D8YOU6S9FQM87JIZVUJ6EYGAQ46UF","2",7,10,2,"5","<p style=""font-size:100px""><b>g</b></p><p style=""position: absolute; top: 30px; right: 30px; text-align:right; font-size:50px"""">N = 2</p>","g",0,73,505.600000008941,1,"agree",7,7,14,11,16,"52","Female","Everything was clear. Thank you, and have a nice day!","Moderate Agreement","Moderate Agreement","Moderate Disagreement","Moderate Disagreement","Moderate Disagreement","Slight Disagreement","Moderate Disagreement","Neither Agreement nor Disagreement","Strong Disagreement","Strong Agreement","Moderate Agreement","Strong Disagreement","Strong Agreement","Strong Agreement","Strong Agreement","Moderate Disagreement","Moderate Disagreement","Moderate Disagreement"
"119","A16Z9FSSF1X74O:3D8YOU6S9FQM87JIZVUJ6EYGAQ46UF","2",7,11,2,"5","<p style=""font-size:100px""><b>P</b></p><p style=""position: absolute; top: 30px; right: 30px; text-align:right; font-size:50px"""">N = 2</p>","P",0,69,545.59999999404,0,"agree",7,7,14,11,16,"52","Female","Everything was clear. Thank you, and have a nice day!","Moderate Agreement","Moderate Agreement","Moderate Disagreement","Moderate Disagreement","Moderate Disagreement","Slight Disagreement","Moderate Disagreement","Neither Agreement nor Disagreement","Strong Disagreement","Strong Agreement","Moderate Agreement","Strong Disagreement","Strong Agreement","Strong Agreement","Strong Agreement","Moderate Disagreement","Moderate Disagreement","Moderate Disagreement"
"120","A16Z9FSSF1X74O:3D8YOU6S9FQM87JIZVUJ6EYGAQ46UF","2",7,12,2,"5","<p style=""font-size:100px""><b>p</b></p><p style=""position: absolute; top: 30px; right: 30px; text-align:right; font-size:50px"""">N = 2</p>","p",0,69,923.100000008941,0,"agree",7,7,14,11,16,"52","Female","Everything was clear. Thank you, and have a nice day!","Moderate Agreement","Moderate Agreement","Moderate Disagreement","Moderate Disagreement","Moderate Disagreement","Slight Disagreement","Moderate Disagreement","Neither Agreement nor Disagreement","Strong Disagreement","Strong Agreement","Moderate Agreement","Strong Disagreement","Strong Agreement","Strong Agreement","Strong Agreement","Moderate Disagreement","Moderate Disagreement","Moderate Disagreement"
"121","A16Z9FSSF1X74O:3D8YOU6S9FQM87JIZVUJ6EYGAQ46UF","2",8,1,2,"5","<p style=""font-size:100px""><b>P</b></p><p style=""position: absolute; top: 30px; right: 30px; text-align:right; font-size:50px"""">N = 2</p>","P",0,73,557.199999988079,1,"agree",8,11,15,11,15,"52","Female","Everything was clear. Thank you, and have a nice day!","Moderate Agreement","Moderate Agreement","Moderate Disagreement","Moderate Disagreement","Moderate Disagreement","Slight Disagreement","Moderate Disagreement","Neither Agreement nor Disagreement","Strong Disagreement","Strong Agreement","Moderate Agreement","Strong Disagreement","Strong Agreement","Strong Agreement","Strong Agreement","Moderate Disagreement","Moderate Disagreement","Moderate Disagreement"
"122","A16Z9FSSF1X74O:3D8YOU6S9FQM87JIZVUJ6EYGAQ46UF","2",8,2,2,"5","<p style=""font-size:100px""><b>D</b></p><p style=""position: absolute; top: 30px; right: 30px; text-align:right; font-size:50px"""">N = 2</p>","D",0,73,581.79999999702,1,"agree",8,11,15,11,15,"52","Female","Everything was clear. Thank you, and have a nice day!","Moderate Agreement","Moderate Agreement","Moderate Disagreement","Moderate Disagreement","Moderate Disagreement","Slight Disagreement","Moderate Disagreement","Neither Agreement nor Disagreement","Strong Disagreement","Strong Agreement","Moderate Agreement","Strong Disagreement","Strong Agreement","Strong Agreement","Strong Agreement","Moderate Disagreement","Moderate Disagreement","Moderate Disagreement"
"123","A16Z9FSSF1X74O:3D8YOU6S9FQM87JIZVUJ6EYGAQ46UF","2",8,3,2,"5","<p style=""font-size:100px""><b>P</b></p><p style=""position: absolute; top: 30px; right: 30px; text-align:right; font-size:50px"""">N = 2</p>","P",0,69,429.5,0,"agree",8,11,15,11,15,"52","Female","Everything was clear. Thank you, and have a nice day!","Moderate Agreement","Moderate Agreement","Moderate Disagreement","Moderate Disagreement","Moderate Disagreement","Slight Disagreement","Moderate Disagreement","Neither Agreement nor Disagreement","Strong Disagreement","Strong Agreement","Moderate Agreement","Strong Disagreement","Strong Agreement","Strong Agreement","Strong Agreement","Moderate Disagreement","Moderate Disagreement","Moderate Disagreement"
"124","A16Z9FSSF1X74O:3D8YOU6S9FQM87JIZVUJ6EYGAQ46UF","2",8,4,2,"5","<p style=""font-size:100px""><b>P</b></p><p style=""position: absolute; top: 30px; right: 30px; text-align:right; font-size:50px"""">N = 2</p>","P",0,69,685.40000000596,0,"agree",8,11,15,11,15,"52","Female","Everything was clear. Thank you, and have a nice day!","Moderate Agreement","Moderate Agreement","Moderate Disagreement","Moderate Disagreement","Moderate Disagreement","Slight Disagreement","Moderate Disagreement","Neither Agreement nor Disagreement","Strong Disagreement","Strong Agreement","Moderate Agreement","Strong Disagreement","Strong Agreement","Strong Agreement","Strong Agreement","Moderate Disagreement","Moderate Disagreement","Moderate Disagreement"
"125","A16Z9FSSF1X74O:3D8YOU6S9FQM87JIZVUJ6EYGAQ46UF","2",8,5,2,"5","<p style=""font-size:100px""><b>V</b></p><p style=""position: absolute; top: 30px; right: 30px; text-align:right; font-size:50px"""">N = 2</p>","V",0,73,599,1,"agree",8,11,15,11,15,"52","Female","Everything was clear. Thank you, and have a nice day!","Moderate Agreement","Moderate Agreement","Moderate Disagreement","Moderate Disagreement","Moderate Disagreement","Slight Disagreement","Moderate Disagreement","Neither Agreement nor Disagreement","Strong Disagreement","Strong Agreement","Moderate Agreement","Strong Disagreement","Strong Agreement","Strong Agreement","Strong Agreement","Moderate Disagreement","Moderate Disagreement","Moderate Disagreement"
"126","A16Z9FSSF1X74O:3D8YOU6S9FQM87JIZVUJ6EYGAQ46UF","2",8,6,2,"5","<p style=""font-size:100px""><b>b</b></p><p style=""position: absolute; top: 30px; right: 30px; text-align:right; font-size:50px"""">N = 2</p>","b",0,73,695,1,"agree",8,11,15,11,15,"52","Female","Everything was clear. Thank you, and have a nice day!","Moderate Agreement","Moderate Agreement","Moderate Disagreement","Moderate Disagreement","Moderate Disagreement","Slight Disagreement","Moderate Disagreement","Neither Agreement nor Disagreement","Strong Disagreement","Strong Agreement","Moderate Agreement","Strong Disagreement","Strong Agreement","Strong Agreement","Strong Agreement","Moderate Disagreement","Moderate Disagreement","Moderate Disagreement"
"127","A16Z9FSSF1X74O:3D8YOU6S9FQM87JIZVUJ6EYGAQ46UF","2",8,7,2,"5","<p style=""font-size:100px""><b>V</b></p><p style=""position: absolute; top: 30px; right: 30px; text-align:right; font-size:50px"""">N = 2</p>","V",0,69,592.29999999702,0,"agree",8,11,15,11,15,"52","Female","Everything was clear. Thank you, and have a nice day!","Moderate Agreement","Moderate Agreement","Moderate Disagreement","Moderate Disagreement","Moderate Disagreement","Slight Disagreement","Moderate Disagreement","Neither Agreement nor Disagreement","Strong Disagreement","Strong Agreement","Moderate Agreement","Strong Disagreement","Strong Agreement","Strong Agreement","Strong Agreement","Moderate Disagreement","Moderate Disagreement","Moderate Disagreement"
"128","A16Z9FSSF1X74O:3D8YOU6S9FQM87JIZVUJ6EYGAQ46UF","2",8,8,2,"5","<p style=""font-size:100px""><b>T</b></p><p style=""position: absolute; top: 30px; right: 30px; text-align:right; font-size:50px"""">N = 2</p>","T",0,73,616.70000000298,1,"agree",8,11,15,11,15,"52","Female","Everything was clear. Thank you, and have a nice day!","Moderate Agreement","Moderate Agreement","Moderate Disagreement","Moderate Disagreement","Moderate Disagreement","Slight Disagreement","Moderate Disagreement","Neither Agreement nor Disagreement","Strong Disagreement","Strong Agreement","Moderate Agreement","Strong Disagreement","Strong Agreement","Strong Agreement","Strong Agreement","Moderate Disagreement","Moderate Disagreement","Moderate Disagreement"
"129","A16Z9FSSF1X74O:3D8YOU6S9FQM87JIZVUJ6EYGAQ46UF","2",8,9,2,"5","<p style=""font-size:100px""><b>B</b></p><p style=""position: absolute; top: 30px; right: 30px; text-align:right; font-size:50px"""">N = 2</p>","B",0,73,897.5,1,"agree",8,11,15,11,15,"52","Female","Everything was clear. Thank you, and have a nice day!","Moderate Agreement","Moderate Agreement","Moderate Disagreement","Moderate Disagreement","Moderate Disagreement","Slight Disagreement","Moderate Disagreement","Neither Agreement nor Disagreement","Strong Disagreement","Strong Agreement","Moderate Agreement","Strong Disagreement","Strong Agreement","Strong Agreement","Strong Agreement","Moderate Disagreement","Moderate Disagreement","Moderate Disagreement"
"130","A16Z9FSSF1X74O:3D8YOU6S9FQM87JIZVUJ6EYGAQ46UF","2",8,10,2,"5","<p style=""font-size:100px""><b>b</b></p><p style=""position: absolute; top: 30px; right: 30px; text-align:right; font-size:50px"""">N = 2</p>","b",0,69,801.100000008941,0,"agree",8,11,15,11,15,"52","Female","Everything was clear. Thank you, and have a nice day!","Moderate Agreement","Moderate Agreement","Moderate Disagreement","Moderate Disagreement","Moderate Disagreement","Slight Disagreement","Moderate Disagreement","Neither Agreement nor Disagreement","Strong Disagreement","Strong Agreement","Moderate Agreement","Strong Disagreement","Strong Agreement","Strong Agreement","Strong Agreement","Moderate Disagreement","Moderate Disagreement","Moderate Disagreement"
"131","A16Z9FSSF1X74O:3D8YOU6S9FQM87JIZVUJ6EYGAQ46UF","2",8,11,2,"5","<p style=""font-size:100px""><b>B</b></p><p style=""position: absolute; top: 30px; right: 30px; text-align:right; font-size:50px"""">N = 2</p>","B",0,69,848.29999999702,0,"agree",8,11,15,11,15,"52","Female","Everything was clear. Thank you, and have a nice day!","Moderate Agreement","Moderate Agreement","Moderate Disagreement","Moderate Disagreement","Moderate Disagreement","Slight Disagreement","Moderate Disagreement","Neither Agreement nor Disagreement","Strong Disagreement","Strong Agreement","Moderate Agreement","Strong Disagreement","Strong Agreement","Strong Agreement","Strong Agreement","Moderate Disagreement","Moderate Disagreement","Moderate Disagreement"
"132","A16Z9FSSF1X74O:3D8YOU6S9FQM87JIZVUJ6EYGAQ46UF","2",8,12,2,"5","<p style=""font-size:100px""><b>b</b></p><p style=""position: absolute; top: 30px; right: 30px; text-align:right; font-size:50px"""">N = 2</p>","b",0,69,648.40000000596,0,"agree",8,11,15,11,15,"52","Female","Everything was clear. Thank you, and have a nice day!","Moderate Agreement","Moderate Agreement","Moderate Disagreement","Moderate Disagreement","Moderate Disagreement","Slight Disagreement","Moderate Disagreement","Neither Agreement nor Disagreement","Strong Disagreement","Strong Agreement","Moderate Agreement","Strong Disagreement","Strong Agreement","Strong Agreement","Strong Agreement","Moderate Disagreement","Moderate Disagreement","Moderate Disagreement"
"133","A16Z9FSSF1X74O:3D8YOU6S9FQM87JIZVUJ6EYGAQ46UF","2",9,1,1,"5","<p style=""font-size:100px""><b>d</b></p><p style=""position: absolute; top: 30px; right: 30px; text-align:right; font-size:50px"""">N = 1</p>","d",0,73,384.29999999702,1,"agree",20,2,2,11,3,"52","Female","Everything was clear. Thank you, and have a nice day!","Moderate Agreement","Moderate Agreement","Moderate Disagreement","Moderate Disagreement","Moderate Disagreement","Slight Disagreement","Moderate Disagreement","Neither Agreement nor Disagreement","Strong Disagreement","Strong Agreement","Moderate Agreement","Strong Disagreement","Strong Agreement","Strong Agreement","Strong Agreement","Moderate Disagreement","Moderate Disagreement","Moderate Disagreement"
"134","A16Z9FSSF1X74O:3D8YOU6S9FQM87JIZVUJ6EYGAQ46UF","2",9,2,1,"5","<p style=""font-size:100px""><b>d</b></p><p style=""position: absolute; top: 30px; right: 30px; text-align:right; font-size:50px"""">N = 1</p>","d",0,69,471.09999999404,0,"agree",20,2,2,11,3,"52","Female","Everything was clear. Thank you, and have a nice day!","Moderate Agreement","Moderate Agreement","Moderate Disagreement","Moderate Disagreement","Moderate Disagreement","Slight Disagreement","Moderate Disagreement","Neither Agreement nor Disagreement","Strong Disagreement","Strong Agreement","Moderate Agreement","Strong Disagreement","Strong Agreement","Strong Agreement","Strong Agreement","Moderate Disagreement","Moderate Disagreement","Moderate Disagreement"
