"","subject","run","block","trial","N","reward","stimulus","cue","isTarget","key_press","rt","acc","debrief","performance","frustration","demand","temporal","effort","age","gender","comments","nfc1","nfc2","nfc3","nfc4","nfc5","nfc6","nfc7","nfc8","nfc9","nfc10","nfc11","nfc12","nfc13","nfc14","nfc15","nfc16","nfc17","nfc18"
"1","A3JLI3TU2PVNNG:3P1L2B7AD2V9EN2SQDOCWROOIZNLO7","practice",1,1,1,"NA","<p style=""font-size:100px""><b>v</b></p><p style=""position: absolute; top: 30px; right: 30px; text-align:right; font-size:50px"""">N = 1</p>","v",0,69,639,0,"agree",14,15,15,18,14,"25","Male","good","Moderate Agreement","Very Strong Agreement","Strong Agreement","Very Strong Agreement","Strong Agreement","Very Strong Agreement","Strong Agreement","Strong Agreement","Very Strong Agreement","Moderate Agreement","Very Strong Agreement","Strong Agreement","Very Strong Agreement","Strong Agreement","Very Strong Agreement","Strong Agreement","Very Strong Agreement","Very Strong Disagreement"
"2","A3JLI3TU2PVNNG:3P1L2B7AD2V9EN2SQDOCWROOIZNLO7","practice",1,2,1,"NA","<p style=""font-size:100px""><b>T</b></p><p style=""position: absolute; top: 30px; right: 30px; text-align:right; font-size:50px"""">N = 1</p>","T",0,69,2175,0,"agree",14,15,15,18,14,"25","Male","good","Moderate Agreement","Very Strong Agreement","Strong Agreement","Very Strong Agreement","Strong Agreement","Very Strong Agreement","Strong Agreement","Strong Agreement","Very Strong Agreement","Moderate Agreement","Very Strong Agreement","Strong Agreement","Very Strong Agreement","Strong Agreement","Very Strong Agreement","Strong Agreement","Very Strong Agreement","Very Strong Disagreement"
"3","A3JLI3TU2PVNNG:3P1L2B7AD2V9EN2SQDOCWROOIZNLO7","practice",1,3,1,"NA","<p style=""font-size:100px""><b>P</b></p><p style=""position: absolute; top: 30px; right: 30px; text-align:right; font-size:50px"""">N = 1</p>","P",0,69,2401,0,"agree",14,15,15,18,14,"25","Male","good","Moderate Agreement","Very Strong Agreement","Strong Agreement","Very Strong Agreement","Strong Agreement","Very Strong Agreement","Strong Agreement","Strong Agreement","Very Strong Agreement","Moderate Agreement","Very Strong Agreement","Strong Agreement","Very Strong Agreement","Strong Agreement","Very Strong Agreement","Strong Agreement","Very Strong Agreement","Very Strong Disagreement"
"4","A3JLI3TU2PVNNG:3P1L2B7AD2V9EN2SQDOCWROOIZNLO7","practice",1,4,1,"NA","<p style=""font-size:100px""><b>P</b></p><p style=""position: absolute; top: 30px; right: 30px; text-align:right; font-size:50px"""">N = 1</p>","P",1,69,20182,1,"agree",14,15,15,18,14,"25","Male","good","Moderate Agreement","Very Strong Agreement","Strong Agreement","Very Strong Agreement","Strong Agreement","Very Strong Agreement","Strong Agreement","Strong Agreement","Very Strong Agreement","Moderate Agreement","Very Strong Agreement","Strong Agreement","Very Strong Agreement","Strong Agreement","Very Strong Agreement","Strong Agreement","Very Strong Agreement","Very Strong Disagreement"
"5","A3JLI3TU2PVNNG:3P1L2B7AD2V9EN2SQDOCWROOIZNLO7","practice",1,5,1,"NA","<p style=""font-size:100px""><b>P</b></p><p style=""position: absolute; top: 30px; right: 30px; text-align:right; font-size:50px"""">N = 1</p>","P",1,73,197,0,"agree",14,15,15,18,14,"25","Male","good","Moderate Agreement","Very Strong Agreement","Strong Agreement","Very Strong Agreement","Strong Agreement","Very Strong Agreement","Strong Agreement","Strong Agreement","Very Strong Agreement","Moderate Agreement","Very Strong Agreement","Strong Agreement","Very Strong Agreement","Strong Agreement","Very Strong Agreement","Strong Agreement","Very Strong Agreement","Very Strong Disagreement"
"6","A3JLI3TU2PVNNG:3P1L2B7AD2V9EN2SQDOCWROOIZNLO7","practice",1,6,1,"NA","<p style=""font-size:100px""><b>D</b></p><p style=""position: absolute; top: 30px; right: 30px; text-align:right; font-size:50px"""">N = 1</p>","D",0,69,18683,0,"agree",14,15,15,18,14,"25","Male","good","Moderate Agreement","Very Strong Agreement","Strong Agreement","Very Strong Agreement","Strong Agreement","Very Strong Agreement","Strong Agreement","Strong Agreement","Very Strong Agreement","Moderate Agreement","Very Strong Agreement","Strong Agreement","Very Strong Agreement","Strong Agreement","Very Strong Agreement","Strong Agreement","Very Strong Agreement","Very Strong Disagreement"
"7","A3JLI3TU2PVNNG:3P1L2B7AD2V9EN2SQDOCWROOIZNLO7","practice",1,7,1,"NA","<p style=""font-size:100px""><b>D</b></p><p style=""position: absolute; top: 30px; right: 30px; text-align:right; font-size:50px"""">N = 1</p>","D",1,73,260,0,"agree",14,15,15,18,14,"25","Male","good","Moderate Agreement","Very Strong Agreement","Strong Agreement","Very Strong Agreement","Strong Agreement","Very Strong Agreement","Strong Agreement","Strong Agreement","Very Strong Agreement","Moderate Agreement","Very Strong Agreement","Strong Agreement","Very Strong Agreement","Strong Agreement","Very Strong Agreement","Strong Agreement","Very Strong Agreement","Very Strong Disagreement"
"8","A3JLI3TU2PVNNG:3P1L2B7AD2V9EN2SQDOCWROOIZNLO7","practice",1,8,1,"NA","<p style=""font-size:100px""><b>T</b></p><p style=""position: absolute; top: 30px; right: 30px; text-align:right; font-size:50px"""">N = 1</p>","T",0,73,4301,1,"agree",14,15,15,18,14,"25","Male","good","Moderate Agreement","Very Strong Agreement","Strong Agreement","Very Strong Agreement","Strong Agreement","Very Strong Agreement","Strong Agreement","Strong Agreement","Very Strong Agreement","Moderate Agreement","Very Strong Agreement","Strong Agreement","Very Strong Agreement","Strong Agreement","Very Strong Agreement","Strong Agreement","Very Strong Agreement","Very Strong Disagreement"
"9","A3JLI3TU2PVNNG:3P1L2B7AD2V9EN2SQDOCWROOIZNLO7","practice",1,9,1,"NA","<p style=""font-size:100px""><b>v</b></p><p style=""position: absolute; top: 30px; right: 30px; text-align:right; font-size:50px"""">N = 1</p>","v",0,73,2911,1,"agree",14,15,15,18,14,"25","Male","good","Moderate Agreement","Very Strong Agreement","Strong Agreement","Very Strong Agreement","Strong Agreement","Very Strong Agreement","Strong Agreement","Strong Agreement","Very Strong Agreement","Moderate Agreement","Very Strong Agreement","Strong Agreement","Very Strong Agreement","Strong Agreement","Very Strong Agreement","Strong Agreement","Very Strong Agreement","Very Strong Disagreement"
"10","A3JLI3TU2PVNNG:3P1L2B7AD2V9EN2SQDOCWROOIZNLO7","practice",1,10,1,"NA","<p style=""font-size:100px""><b>g</b></p><p style=""position: absolute; top: 30px; right: 30px; text-align:right; font-size:50px"""">N = 1</p>","g",0,73,994,1,"agree",14,15,15,18,14,"25","Male","good","Moderate Agreement","Very Strong Agreement","Strong Agreement","Very Strong Agreement","Strong Agreement","Very Strong Agreement","Strong Agreement","Strong Agreement","Very Strong Agreement","Moderate Agreement","Very Strong Agreement","Strong Agreement","Very Strong Agreement","Strong Agreement","Very Strong Agreement","Strong Agreement","Very Strong Agreement","Very Strong Disagreement"
"11","A3JLI3TU2PVNNG:3P1L2B7AD2V9EN2SQDOCWROOIZNLO7","practice",1,11,1,"NA","<p style=""font-size:100px""><b>T</b></p><p style=""position: absolute; top: 30px; right: 30px; text-align:right; font-size:50px"""">N = 1</p>","T",0,73,458,1,"agree",14,15,15,18,14,"25","Male","good","Moderate Agreement","Very Strong Agreement","Strong Agreement","Very Strong Agreement","Strong Agreement","Very Strong Agreement","Strong Agreement","Strong Agreement","Very Strong Agreement","Moderate Agreement","Very Strong Agreement","Strong Agreement","Very Strong Agreement","Strong Agreement","Very Strong Agreement","Strong Agreement","Very Strong Agreement","Very Strong Disagreement"
"12","A3JLI3TU2PVNNG:3P1L2B7AD2V9EN2SQDOCWROOIZNLO7","practice",1,12,1,"NA","<p style=""font-size:100px""><b>T</b></p><p style=""position: absolute; top: 30px; right: 30px; text-align:right; font-size:50px"""">N = 1</p>","T",1,73,626,0,"agree",14,15,15,18,14,"25","Male","good","Moderate Agreement","Very Strong Agreement","Strong Agreement","Very Strong Agreement","Strong Agreement","Very Strong Agreement","Strong Agreement","Strong Agreement","Very Strong Agreement","Moderate Agreement","Very Strong Agreement","Strong Agreement","Very Strong Agreement","Strong Agreement","Very Strong Agreement","Strong Agreement","Very Strong Agreement","Very Strong Disagreement"
"13","A3JLI3TU2PVNNG:3P1L2B7AD2V9EN2SQDOCWROOIZNLO7","practice",2,1,2,"NA","<p style=""font-size:100px""><b>t</b></p><p style=""position: absolute; top: 30px; right: 30px; text-align:right; font-size:50px"""">N = 2</p>","t",0,73,748,1,"agree",14,15,15,18,14,"25","Male","good","Moderate Agreement","Very Strong Agreement","Strong Agreement","Very Strong Agreement","Strong Agreement","Very Strong Agreement","Strong Agreement","Strong Agreement","Very Strong Agreement","Moderate Agreement","Very Strong Agreement","Strong Agreement","Very Strong Agreement","Strong Agreement","Very Strong Agreement","Strong Agreement","Very Strong Agreement","Very Strong Disagreement"
"14","A3JLI3TU2PVNNG:3P1L2B7AD2V9EN2SQDOCWROOIZNLO7","practice",2,2,2,"NA","<p style=""font-size:100px""><b>V</b></p><p style=""position: absolute; top: 30px; right: 30px; text-align:right; font-size:50px"""">N = 2</p>","V",0,73,833,1,"agree",14,15,15,18,14,"25","Male","good","Moderate Agreement","Very Strong Agreement","Strong Agreement","Very Strong Agreement","Strong Agreement","Very Strong Agreement","Strong Agreement","Strong Agreement","Very Strong Agreement","Moderate Agreement","Very Strong Agreement","Strong Agreement","Very Strong Agreement","Strong Agreement","Very Strong Agreement","Strong Agreement","Very Strong Agreement","Very Strong Disagreement"
"15","A3JLI3TU2PVNNG:3P1L2B7AD2V9EN2SQDOCWROOIZNLO7","practice",2,3,2,"NA","<p style=""font-size:100px""><b>D</b></p><p style=""position: absolute; top: 30px; right: 30px; text-align:right; font-size:50px"""">N = 2</p>","D",0,73,898,1,"agree",14,15,15,18,14,"25","Male","good","Moderate Agreement","Very Strong Agreement","Strong Agreement","Very Strong Agreement","Strong Agreement","Very Strong Agreement","Strong Agreement","Strong Agreement","Very Strong Agreement","Moderate Agreement","Very Strong Agreement","Strong Agreement","Very Strong Agreement","Strong Agreement","Very Strong Agreement","Strong Agreement","Very Strong Agreement","Very Strong Disagreement"
"16","A3JLI3TU2PVNNG:3P1L2B7AD2V9EN2SQDOCWROOIZNLO7","practice",2,4,2,"NA","<p style=""font-size:100px""><b>B</b></p><p style=""position: absolute; top: 30px; right: 30px; text-align:right; font-size:50px"""">N = 2</p>","B",0,73,609,1,"agree",14,15,15,18,14,"25","Male","good","Moderate Agreement","Very Strong Agreement","Strong Agreement","Very Strong Agreement","Strong Agreement","Very Strong Agreement","Strong Agreement","Strong Agreement","Very Strong Agreement","Moderate Agreement","Very Strong Agreement","Strong Agreement","Very Strong Agreement","Strong Agreement","Very Strong Agreement","Strong Agreement","Very Strong Agreement","Very Strong Disagreement"
"17","A3JLI3TU2PVNNG:3P1L2B7AD2V9EN2SQDOCWROOIZNLO7","practice",2,5,2,"NA","<p style=""font-size:100px""><b>D</b></p><p style=""position: absolute; top: 30px; right: 30px; text-align:right; font-size:50px"""">N = 2</p>","D",1,73,608,0,"agree",14,15,15,18,14,"25","Male","good","Moderate Agreement","Very Strong Agreement","Strong Agreement","Very Strong Agreement","Strong Agreement","Very Strong Agreement","Strong Agreement","Strong Agreement","Very Strong Agreement","Moderate Agreement","Very Strong Agreement","Strong Agreement","Very Strong Agreement","Strong Agreement","Very Strong Agreement","Strong Agreement","Very Strong Agreement","Very Strong Disagreement"
"18","A3JLI3TU2PVNNG:3P1L2B7AD2V9EN2SQDOCWROOIZNLO7","practice",2,6,2,"NA","<p style=""font-size:100px""><b>D</b></p><p style=""position: absolute; top: 30px; right: 30px; text-align:right; font-size:50px"""">N = 2</p>","D",0,73,625,1,"agree",14,15,15,18,14,"25","Male","good","Moderate Agreement","Very Strong Agreement","Strong Agreement","Very Strong Agreement","Strong Agreement","Very Strong Agreement","Strong Agreement","Strong Agreement","Very Strong Agreement","Moderate Agreement","Very Strong Agreement","Strong Agreement","Very Strong Agreement","Strong Agreement","Very Strong Agreement","Strong Agreement","Very Strong Agreement","Very Strong Disagreement"
"19","A3JLI3TU2PVNNG:3P1L2B7AD2V9EN2SQDOCWROOIZNLO7","practice",2,7,2,"NA","<p style=""font-size:100px""><b>b</b></p><p style=""position: absolute; top: 30px; right: 30px; text-align:right; font-size:50px"""">N = 2</p>","b",0,73,2154,1,"agree",14,15,15,18,14,"25","Male","good","Moderate Agreement","Very Strong Agreement","Strong Agreement","Very Strong Agreement","Strong Agreement","Very Strong Agreement","Strong Agreement","Strong Agreement","Very Strong Agreement","Moderate Agreement","Very Strong Agreement","Strong Agreement","Very Strong Agreement","Strong Agreement","Very Strong Agreement","Strong Agreement","Very Strong Agreement","Very Strong Disagreement"
"20","A3JLI3TU2PVNNG:3P1L2B7AD2V9EN2SQDOCWROOIZNLO7","practice",2,8,2,"NA","<p style=""font-size:100px""><b>D</b></p><p style=""position: absolute; top: 30px; right: 30px; text-align:right; font-size:50px"""">N = 2</p>","D",1,73,2689,0,"agree",14,15,15,18,14,"25","Male","good","Moderate Agreement","Very Strong Agreement","Strong Agreement","Very Strong Agreement","Strong Agreement","Very Strong Agreement","Strong Agreement","Strong Agreement","Very Strong Agreement","Moderate Agreement","Very Strong Agreement","Strong Agreement","Very Strong Agreement","Strong Agreement","Very Strong Agreement","Strong Agreement","Very Strong Agreement","Very Strong Disagreement"
"21","A3JLI3TU2PVNNG:3P1L2B7AD2V9EN2SQDOCWROOIZNLO7","practice",2,9,2,"NA","<p style=""font-size:100px""><b>b</b></p><p style=""position: absolute; top: 30px; right: 30px; text-align:right; font-size:50px"""">N = 2</p>","b",1,73,200,0,"agree",14,15,15,18,14,"25","Male","good","Moderate Agreement","Very Strong Agreement","Strong Agreement","Very Strong Agreement","Strong Agreement","Very Strong Agreement","Strong Agreement","Strong Agreement","Very Strong Agreement","Moderate Agreement","Very Strong Agreement","Strong Agreement","Very Strong Agreement","Strong Agreement","Very Strong Agreement","Strong Agreement","Very Strong Agreement","Very Strong Disagreement"
"22","A3JLI3TU2PVNNG:3P1L2B7AD2V9EN2SQDOCWROOIZNLO7","practice",2,10,2,"NA","<p style=""font-size:100px""><b>t</b></p><p style=""position: absolute; top: 30px; right: 30px; text-align:right; font-size:50px"""">N = 2</p>","t",0,73,127,1,"agree",14,15,15,18,14,"25","Male","good","Moderate Agreement","Very Strong Agreement","Strong Agreement","Very Strong Agreement","Strong Agreement","Very Strong Agreement","Strong Agreement","Strong Agreement","Very Strong Agreement","Moderate Agreement","Very Strong Agreement","Strong Agreement","Very Strong Agreement","Strong Agreement","Very Strong Agreement","Strong Agreement","Very Strong Agreement","Very Strong Disagreement"
"23","A3JLI3TU2PVNNG:3P1L2B7AD2V9EN2SQDOCWROOIZNLO7","practice",2,11,2,"NA","<p style=""font-size:100px""><b>b</b></p><p style=""position: absolute; top: 30px; right: 30px; text-align:right; font-size:50px"""">N = 2</p>","b",1,73,2207,0,"agree",14,15,15,18,14,"25","Male","good","Moderate Agreement","Very Strong Agreement","Strong Agreement","Very Strong Agreement","Strong Agreement","Very Strong Agreement","Strong Agreement","Strong Agreement","Very Strong Agreement","Moderate Agreement","Very Strong Agreement","Strong Agreement","Very Strong Agreement","Strong Agreement","Very Strong Agreement","Strong Agreement","Very Strong Agreement","Very Strong Disagreement"
"24","A3JLI3TU2PVNNG:3P1L2B7AD2V9EN2SQDOCWROOIZNLO7","practice",2,12,2,"NA","<p style=""font-size:100px""><b>V</b></p><p style=""position: absolute; top: 30px; right: 30px; text-align:right; font-size:50px"""">N = 2</p>","V",0,73,150,1,"agree",14,15,15,18,14,"25","Male","good","Moderate Agreement","Very Strong Agreement","Strong Agreement","Very Strong Agreement","Strong Agreement","Very Strong Agreement","Strong Agreement","Strong Agreement","Very Strong Agreement","Moderate Agreement","Very Strong Agreement","Strong Agreement","Very Strong Agreement","Strong Agreement","Very Strong Agreement","Strong Agreement","Very Strong Agreement","Very Strong Disagreement"
"25","A3JLI3TU2PVNNG:3P1L2B7AD2V9EN2SQDOCWROOIZNLO7","practice",3,1,3,"NA","<p style=""font-size:100px""><b>P</b></p><p style=""position: absolute; top: 30px; right: 30px; text-align:right; font-size:50px"""">N = 3</p>","P",0,73,2152,1,"agree",14,15,15,18,14,"25","Male","good","Moderate Agreement","Very Strong Agreement","Strong Agreement","Very Strong Agreement","Strong Agreement","Very Strong Agreement","Strong Agreement","Strong Agreement","Very Strong Agreement","Moderate Agreement","Very Strong Agreement","Strong Agreement","Very Strong Agreement","Strong Agreement","Very Strong Agreement","Strong Agreement","Very Strong Agreement","Very Strong Disagreement"
"26","A3JLI3TU2PVNNG:3P1L2B7AD2V9EN2SQDOCWROOIZNLO7","practice",3,2,3,"NA","<p style=""font-size:100px""><b>T</b></p><p style=""position: absolute; top: 30px; right: 30px; text-align:right; font-size:50px"""">N = 3</p>","T",0,73,103,1,"agree",14,15,15,18,14,"25","Male","good","Moderate Agreement","Very Strong Agreement","Strong Agreement","Very Strong Agreement","Strong Agreement","Very Strong Agreement","Strong Agreement","Strong Agreement","Very Strong Agreement","Moderate Agreement","Very Strong Agreement","Strong Agreement","Very Strong Agreement","Strong Agreement","Very Strong Agreement","Strong Agreement","Very Strong Agreement","Very Strong Disagreement"
"27","A3JLI3TU2PVNNG:3P1L2B7AD2V9EN2SQDOCWROOIZNLO7","practice",3,3,3,"NA","<p style=""font-size:100px""><b>g</b></p><p style=""position: absolute; top: 30px; right: 30px; text-align:right; font-size:50px"""">N = 3</p>","g",0,73,11508,1,"agree",14,15,15,18,14,"25","Male","good","Moderate Agreement","Very Strong Agreement","Strong Agreement","Very Strong Agreement","Strong Agreement","Very Strong Agreement","Strong Agreement","Strong Agreement","Very Strong Agreement","Moderate Agreement","Very Strong Agreement","Strong Agreement","Very Strong Agreement","Strong Agreement","Very Strong Agreement","Strong Agreement","Very Strong Agreement","Very Strong Disagreement"
"28","A3JLI3TU2PVNNG:3P1L2B7AD2V9EN2SQDOCWROOIZNLO7","practice",3,4,3,"NA","<p style=""font-size:100px""><b>P</b></p><p style=""position: absolute; top: 30px; right: 30px; text-align:right; font-size:50px"""">N = 3</p>","P",1,73,325,0,"agree",14,15,15,18,14,"25","Male","good","Moderate Agreement","Very Strong Agreement","Strong Agreement","Very Strong Agreement","Strong Agreement","Very Strong Agreement","Strong Agreement","Strong Agreement","Very Strong Agreement","Moderate Agreement","Very Strong Agreement","Strong Agreement","Very Strong Agreement","Strong Agreement","Very Strong Agreement","Strong Agreement","Very Strong Agreement","Very Strong Disagreement"
"29","A3JLI3TU2PVNNG:3P1L2B7AD2V9EN2SQDOCWROOIZNLO7","practice",3,5,3,"NA","<p style=""font-size:100px""><b>D</b></p><p style=""position: absolute; top: 30px; right: 30px; text-align:right; font-size:50px"""">N = 3</p>","D",0,73,3502,1,"agree",14,15,15,18,14,"25","Male","good","Moderate Agreement","Very Strong Agreement","Strong Agreement","Very Strong Agreement","Strong Agreement","Very Strong Agreement","Strong Agreement","Strong Agreement","Very Strong Agreement","Moderate Agreement","Very Strong Agreement","Strong Agreement","Very Strong Agreement","Strong Agreement","Very Strong Agreement","Strong Agreement","Very Strong Agreement","Very Strong Disagreement"
"30","A3JLI3TU2PVNNG:3P1L2B7AD2V9EN2SQDOCWROOIZNLO7","practice",3,6,3,"NA","<p style=""font-size:100px""><b>D</b></p><p style=""position: absolute; top: 30px; right: 30px; text-align:right; font-size:50px"""">N = 3</p>","D",0,73,1390,1,"agree",14,15,15,18,14,"25","Male","good","Moderate Agreement","Very Strong Agreement","Strong Agreement","Very Strong Agreement","Strong Agreement","Very Strong Agreement","Strong Agreement","Strong Agreement","Very Strong Agreement","Moderate Agreement","Very Strong Agreement","Strong Agreement","Very Strong Agreement","Strong Agreement","Very Strong Agreement","Strong Agreement","Very Strong Agreement","Very Strong Disagreement"
"31","A3JLI3TU2PVNNG:3P1L2B7AD2V9EN2SQDOCWROOIZNLO7","practice",3,7,3,"NA","<p style=""font-size:100px""><b>b</b></p><p style=""position: absolute; top: 30px; right: 30px; text-align:right; font-size:50px"""">N = 3</p>","b",0,73,302,1,"agree",14,15,15,18,14,"25","Male","good","Moderate Agreement","Very Strong Agreement","Strong Agreement","Very Strong Agreement","Strong Agreement","Very Strong Agreement","Strong Agreement","Strong Agreement","Very Strong Agreement","Moderate Agreement","Very Strong Agreement","Strong Agreement","Very Strong Agreement","Strong Agreement","Very Strong Agreement","Strong Agreement","Very Strong Agreement","Very Strong Disagreement"
"32","A3JLI3TU2PVNNG:3P1L2B7AD2V9EN2SQDOCWROOIZNLO7","practice",3,8,3,"NA","<p style=""font-size:100px""><b>P</b></p><p style=""position: absolute; top: 30px; right: 30px; text-align:right; font-size:50px"""">N = 3</p>","P",0,73,144,1,"agree",14,15,15,18,14,"25","Male","good","Moderate Agreement","Very Strong Agreement","Strong Agreement","Very Strong Agreement","Strong Agreement","Very Strong Agreement","Strong Agreement","Strong Agreement","Very Strong Agreement","Moderate Agreement","Very Strong Agreement","Strong Agreement","Very Strong Agreement","Strong Agreement","Very Strong Agreement","Strong Agreement","Very Strong Agreement","Very Strong Disagreement"
"33","A3JLI3TU2PVNNG:3P1L2B7AD2V9EN2SQDOCWROOIZNLO7","practice",3,9,3,"NA","<p style=""font-size:100px""><b>D</b></p><p style=""position: absolute; top: 30px; right: 30px; text-align:right; font-size:50px"""">N = 3</p>","D",1,73,79,0,"agree",14,15,15,18,14,"25","Male","good","Moderate Agreement","Very Strong Agreement","Strong Agreement","Very Strong Agreement","Strong Agreement","Very Strong Agreement","Strong Agreement","Strong Agreement","Very Strong Agreement","Moderate Agreement","Very Strong Agreement","Strong Agreement","Very Strong Agreement","Strong Agreement","Very Strong Agreement","Strong Agreement","Very Strong Agreement","Very Strong Disagreement"
"34","A3JLI3TU2PVNNG:3P1L2B7AD2V9EN2SQDOCWROOIZNLO7","practice",3,10,3,"NA","<p style=""font-size:100px""><b>b</b></p><p style=""position: absolute; top: 30px; right: 30px; text-align:right; font-size:50px"""">N = 3</p>","b",1,73,3374,0,"agree",14,15,15,18,14,"25","Male","good","Moderate Agreement","Very Strong Agreement","Strong Agreement","Very Strong Agreement","Strong Agreement","Very Strong Agreement","Strong Agreement","Strong Agreement","Very Strong Agreement","Moderate Agreement","Very Strong Agreement","Strong Agreement","Very Strong Agreement","Strong Agreement","Very Strong Agreement","Strong Agreement","Very Strong Agreement","Very Strong Disagreement"
"35","A3JLI3TU2PVNNG:3P1L2B7AD2V9EN2SQDOCWROOIZNLO7","practice",3,11,3,"NA","<p style=""font-size:100px""><b>P</b></p><p style=""position: absolute; top: 30px; right: 30px; text-align:right; font-size:50px"""">N = 3</p>","P",1,73,108,0,"agree",14,15,15,18,14,"25","Male","good","Moderate Agreement","Very Strong Agreement","Strong Agreement","Very Strong Agreement","Strong Agreement","Very Strong Agreement","Strong Agreement","Strong Agreement","Very Strong Agreement","Moderate Agreement","Very Strong Agreement","Strong Agreement","Very Strong Agreement","Strong Agreement","Very Strong Agreement","Strong Agreement","Very Strong Agreement","Very Strong Disagreement"
"36","A3JLI3TU2PVNNG:3P1L2B7AD2V9EN2SQDOCWROOIZNLO7","practice",3,12,3,"NA","<p style=""font-size:100px""><b>V</b></p><p style=""position: absolute; top: 30px; right: 30px; text-align:right; font-size:50px"""">N = 3</p>","V",0,73,238,1,"agree",14,15,15,18,14,"25","Male","good","Moderate Agreement","Very Strong Agreement","Strong Agreement","Very Strong Agreement","Strong Agreement","Very Strong Agreement","Strong Agreement","Strong Agreement","Very Strong Agreement","Moderate Agreement","Very Strong Agreement","Strong Agreement","Very Strong Agreement","Strong Agreement","Very Strong Agreement","Strong Agreement","Very Strong Agreement","Very Strong Disagreement"
"37","A3JLI3TU2PVNNG:3P1L2B7AD2V9EN2SQDOCWROOIZNLO7","1",1,1,3,"50","<p style=""font-size:100px""><b>B</b></p><p style=""position: absolute; top: 30px; right: 30px; text-align:right; font-size:50px"""">N = 3</p>","B",0,NA,NA,0,"agree",14,15,15,18,14,"25","Male","good","Moderate Agreement","Very Strong Agreement","Strong Agreement","Very Strong Agreement","Strong Agreement","Very Strong Agreement","Strong Agreement","Strong Agreement","Very Strong Agreement","Moderate Agreement","Very Strong Agreement","Strong Agreement","Very Strong Agreement","Strong Agreement","Very Strong Agreement","Strong Agreement","Very Strong Agreement","Very Strong Disagreement"
"38","A3JLI3TU2PVNNG:3P1L2B7AD2V9EN2SQDOCWROOIZNLO7","1",1,2,3,"50","<p style=""font-size:100px""><b>b</b></p><p style=""position: absolute; top: 30px; right: 30px; text-align:right; font-size:50px"""">N = 3</p>","b",0,NA,NA,0,"agree",14,15,15,18,14,"25","Male","good","Moderate Agreement","Very Strong Agreement","Strong Agreement","Very Strong Agreement","Strong Agreement","Very Strong Agreement","Strong Agreement","Strong Agreement","Very Strong Agreement","Moderate Agreement","Very Strong Agreement","Strong Agreement","Very Strong Agreement","Strong Agreement","Very Strong Agreement","Strong Agreement","Very Strong Agreement","Very Strong Disagreement"
"39","A3JLI3TU2PVNNG:3P1L2B7AD2V9EN2SQDOCWROOIZNLO7","1",1,3,3,"50","<p style=""font-size:100px""><b>g</b></p><p style=""position: absolute; top: 30px; right: 30px; text-align:right; font-size:50px"""">N = 3</p>","g",0,73,710,1,"agree",14,15,15,18,14,"25","Male","good","Moderate Agreement","Very Strong Agreement","Strong Agreement","Very Strong Agreement","Strong Agreement","Very Strong Agreement","Strong Agreement","Strong Agreement","Very Strong Agreement","Moderate Agreement","Very Strong Agreement","Strong Agreement","Very Strong Agreement","Strong Agreement","Very Strong Agreement","Strong Agreement","Very Strong Agreement","Very Strong Disagreement"
"40","A3JLI3TU2PVNNG:3P1L2B7AD2V9EN2SQDOCWROOIZNLO7","1",1,4,3,"50","<p style=""font-size:100px""><b>t</b></p><p style=""position: absolute; top: 30px; right: 30px; text-align:right; font-size:50px"""">N = 3</p>","t",0,73,448,1,"agree",14,15,15,18,14,"25","Male","good","Moderate Agreement","Very Strong Agreement","Strong Agreement","Very Strong Agreement","Strong Agreement","Very Strong Agreement","Strong Agreement","Strong Agreement","Very Strong Agreement","Moderate Agreement","Very Strong Agreement","Strong Agreement","Very Strong Agreement","Strong Agreement","Very Strong Agreement","Strong Agreement","Very Strong Agreement","Very Strong Disagreement"
"41","A3JLI3TU2PVNNG:3P1L2B7AD2V9EN2SQDOCWROOIZNLO7","1",1,5,3,"50","<p style=""font-size:100px""><b>b</b></p><p style=""position: absolute; top: 30px; right: 30px; text-align:right; font-size:50px"""">N = 3</p>","b",0,73,897,1,"agree",14,15,15,18,14,"25","Male","good","Moderate Agreement","Very Strong Agreement","Strong Agreement","Very Strong Agreement","Strong Agreement","Very Strong Agreement","Strong Agreement","Strong Agreement","Very Strong Agreement","Moderate Agreement","Very Strong Agreement","Strong Agreement","Very Strong Agreement","Strong Agreement","Very Strong Agreement","Strong Agreement","Very Strong Agreement","Very Strong Disagreement"
"42","A3JLI3TU2PVNNG:3P1L2B7AD2V9EN2SQDOCWROOIZNLO7","1",1,6,3,"50","<p style=""font-size:100px""><b>b</b></p><p style=""position: absolute; top: 30px; right: 30px; text-align:right; font-size:50px"""">N = 3</p>","b",0,73,359,1,"agree",14,15,15,18,14,"25","Male","good","Moderate Agreement","Very Strong Agreement","Strong Agreement","Very Strong Agreement","Strong Agreement","Very Strong Agreement","Strong Agreement","Strong Agreement","Very Strong Agreement","Moderate Agreement","Very Strong Agreement","Strong Agreement","Very Strong Agreement","Strong Agreement","Very Strong Agreement","Strong Agreement","Very Strong Agreement","Very Strong Disagreement"
"43","A3JLI3TU2PVNNG:3P1L2B7AD2V9EN2SQDOCWROOIZNLO7","1",1,7,3,"50","<p style=""font-size:100px""><b>d</b></p><p style=""position: absolute; top: 30px; right: 30px; text-align:right; font-size:50px"""">N = 3</p>","d",0,73,279,1,"agree",14,15,15,18,14,"25","Male","good","Moderate Agreement","Very Strong Agreement","Strong Agreement","Very Strong Agreement","Strong Agreement","Very Strong Agreement","Strong Agreement","Strong Agreement","Very Strong Agreement","Moderate Agreement","Very Strong Agreement","Strong Agreement","Very Strong Agreement","Strong Agreement","Very Strong Agreement","Strong Agreement","Very Strong Agreement","Very Strong Disagreement"
"44","A3JLI3TU2PVNNG:3P1L2B7AD2V9EN2SQDOCWROOIZNLO7","1",1,8,3,"50","<p style=""font-size:100px""><b>T</b></p><p style=""position: absolute; top: 30px; right: 30px; text-align:right; font-size:50px"""">N = 3</p>","T",0,73,295,1,"agree",14,15,15,18,14,"25","Male","good","Moderate Agreement","Very Strong Agreement","Strong Agreement","Very Strong Agreement","Strong Agreement","Very Strong Agreement","Strong Agreement","Strong Agreement","Very Strong Agreement","Moderate Agreement","Very Strong Agreement","Strong Agreement","Very Strong Agreement","Strong Agreement","Very Strong Agreement","Strong Agreement","Very Strong Agreement","Very Strong Disagreement"
"45","A3JLI3TU2PVNNG:3P1L2B7AD2V9EN2SQDOCWROOIZNLO7","1",1,9,3,"50","<p style=""font-size:100px""><b>T</b></p><p style=""position: absolute; top: 30px; right: 30px; text-align:right; font-size:50px"""">N = 3</p>","T",0,73,311,1,"agree",14,15,15,18,14,"25","Male","good","Moderate Agreement","Very Strong Agreement","Strong Agreement","Very Strong Agreement","Strong Agreement","Very Strong Agreement","Strong Agreement","Strong Agreement","Very Strong Agreement","Moderate Agreement","Very Strong Agreement","Strong Agreement","Very Strong Agreement","Strong Agreement","Very Strong Agreement","Strong Agreement","Very Strong Agreement","Very Strong Disagreement"
"46","A3JLI3TU2PVNNG:3P1L2B7AD2V9EN2SQDOCWROOIZNLO7","1",1,10,3,"50","<p style=""font-size:100px""><b>d</b></p><p style=""position: absolute; top: 30px; right: 30px; text-align:right; font-size:50px"""">N = 3</p>","d",0,73,319,1,"agree",14,15,15,18,14,"25","Male","good","Moderate Agreement","Very Strong Agreement","Strong Agreement","Very Strong Agreement","Strong Agreement","Very Strong Agreement","Strong Agreement","Strong Agreement","Very Strong Agreement","Moderate Agreement","Very Strong Agreement","Strong Agreement","Very Strong Agreement","Strong Agreement","Very Strong Agreement","Strong Agreement","Very Strong Agreement","Very Strong Disagreement"
"47","A3JLI3TU2PVNNG:3P1L2B7AD2V9EN2SQDOCWROOIZNLO7","1",1,11,3,"50","<p style=""font-size:100px""><b>T</b></p><p style=""position: absolute; top: 30px; right: 30px; text-align:right; font-size:50px"""">N = 3</p>","T",0,73,343,1,"agree",14,15,15,18,14,"25","Male","good","Moderate Agreement","Very Strong Agreement","Strong Agreement","Very Strong Agreement","Strong Agreement","Very Strong Agreement","Strong Agreement","Strong Agreement","Very Strong Agreement","Moderate Agreement","Very Strong Agreement","Strong Agreement","Very Strong Agreement","Strong Agreement","Very Strong Agreement","Strong Agreement","Very Strong Agreement","Very Strong Disagreement"
"48","A3JLI3TU2PVNNG:3P1L2B7AD2V9EN2SQDOCWROOIZNLO7","1",1,12,3,"50","<p style=""font-size:100px""><b>T</b></p><p style=""position: absolute; top: 30px; right: 30px; text-align:right; font-size:50px"""">N = 3</p>","T",0,73,255,1,"agree",14,15,15,18,14,"25","Male","good","Moderate Agreement","Very Strong Agreement","Strong Agreement","Very Strong Agreement","Strong Agreement","Very Strong Agreement","Strong Agreement","Strong Agreement","Very Strong Agreement","Moderate Agreement","Very Strong Agreement","Strong Agreement","Very Strong Agreement","Strong Agreement","Very Strong Agreement","Strong Agreement","Very Strong Agreement","Very Strong Disagreement"
"49","A3JLI3TU2PVNNG:3P1L2B7AD2V9EN2SQDOCWROOIZNLO7","1",2,1,2,"5","<p style=""font-size:100px""><b>D</b></p><p style=""position: absolute; top: 30px; right: 30px; text-align:right; font-size:50px"""">N = 2</p>","D",0,NA,NA,0,"agree",19,18,21,21,20,"25","Male","good","Moderate Agreement","Very Strong Agreement","Strong Agreement","Very Strong Agreement","Strong Agreement","Very Strong Agreement","Strong Agreement","Strong Agreement","Very Strong Agreement","Moderate Agreement","Very Strong Agreement","Strong Agreement","Very Strong Agreement","Strong Agreement","Very Strong Agreement","Strong Agreement","Very Strong Agreement","Very Strong Disagreement"
"50","A3JLI3TU2PVNNG:3P1L2B7AD2V9EN2SQDOCWROOIZNLO7","1",2,2,2,"5","<p style=""font-size:100px""><b>g</b></p><p style=""position: absolute; top: 30px; right: 30px; text-align:right; font-size:50px"""">N = 2</p>","g",0,NA,NA,0,"agree",19,18,21,21,20,"25","Male","good","Moderate Agreement","Very Strong Agreement","Strong Agreement","Very Strong Agreement","Strong Agreement","Very Strong Agreement","Strong Agreement","Strong Agreement","Very Strong Agreement","Moderate Agreement","Very Strong Agreement","Strong Agreement","Very Strong Agreement","Strong Agreement","Very Strong Agreement","Strong Agreement","Very Strong Agreement","Very Strong Disagreement"
"51","A3JLI3TU2PVNNG:3P1L2B7AD2V9EN2SQDOCWROOIZNLO7","1",2,3,2,"5","<p style=""font-size:100px""><b>B</b></p><p style=""position: absolute; top: 30px; right: 30px; text-align:right; font-size:50px"""">N = 2</p>","B",0,73,271,1,"agree",19,18,21,21,20,"25","Male","good","Moderate Agreement","Very Strong Agreement","Strong Agreement","Very Strong Agreement","Strong Agreement","Very Strong Agreement","Strong Agreement","Strong Agreement","Very Strong Agreement","Moderate Agreement","Very Strong Agreement","Strong Agreement","Very Strong Agreement","Strong Agreement","Very Strong Agreement","Strong Agreement","Very Strong Agreement","Very Strong Disagreement"
"52","A3JLI3TU2PVNNG:3P1L2B7AD2V9EN2SQDOCWROOIZNLO7","1",2,4,2,"5","<p style=""font-size:100px""><b>d</b></p><p style=""position: absolute; top: 30px; right: 30px; text-align:right; font-size:50px"""">N = 2</p>","d",0,73,304,1,"agree",19,18,21,21,20,"25","Male","good","Moderate Agreement","Very Strong Agreement","Strong Agreement","Very Strong Agreement","Strong Agreement","Very Strong Agreement","Strong Agreement","Strong Agreement","Very Strong Agreement","Moderate Agreement","Very Strong Agreement","Strong Agreement","Very Strong Agreement","Strong Agreement","Very Strong Agreement","Strong Agreement","Very Strong Agreement","Very Strong Disagreement"
"53","A3JLI3TU2PVNNG:3P1L2B7AD2V9EN2SQDOCWROOIZNLO7","1",2,5,2,"5","<p style=""font-size:100px""><b>B</b></p><p style=""position: absolute; top: 30px; right: 30px; text-align:right; font-size:50px"""">N = 2</p>","B",0,73,280,1,"agree",19,18,21,21,20,"25","Male","good","Moderate Agreement","Very Strong Agreement","Strong Agreement","Very Strong Agreement","Strong Agreement","Very Strong Agreement","Strong Agreement","Strong Agreement","Very Strong Agreement","Moderate Agreement","Very Strong Agreement","Strong Agreement","Very Strong Agreement","Strong Agreement","Very Strong Agreement","Strong Agreement","Very Strong Agreement","Very Strong Disagreement"
"54","A3JLI3TU2PVNNG:3P1L2B7AD2V9EN2SQDOCWROOIZNLO7","1",2,6,2,"5","<p style=""font-size:100px""><b>d</b></p><p style=""position: absolute; top: 30px; right: 30px; text-align:right; font-size:50px"""">N = 2</p>","d",0,73,443,1,"agree",19,18,21,21,20,"25","Male","good","Moderate Agreement","Very Strong Agreement","Strong Agreement","Very Strong Agreement","Strong Agreement","Very Strong Agreement","Strong Agreement","Strong Agreement","Very Strong Agreement","Moderate Agreement","Very Strong Agreement","Strong Agreement","Very Strong Agreement","Strong Agreement","Very Strong Agreement","Strong Agreement","Very Strong Agreement","Very Strong Disagreement"
"55","A3JLI3TU2PVNNG:3P1L2B7AD2V9EN2SQDOCWROOIZNLO7","1",2,7,2,"5","<p style=""font-size:100px""><b>D</b></p><p style=""position: absolute; top: 30px; right: 30px; text-align:right; font-size:50px"""">N = 2</p>","D",0,NA,NA,0,"agree",19,18,21,21,20,"25","Male","good","Moderate Agreement","Very Strong Agreement","Strong Agreement","Very Strong Agreement","Strong Agreement","Very Strong Agreement","Strong Agreement","Strong Agreement","Very Strong Agreement","Moderate Agreement","Very Strong Agreement","Strong Agreement","Very Strong Agreement","Strong Agreement","Very Strong Agreement","Strong Agreement","Very Strong Agreement","Very Strong Disagreement"
"56","A3JLI3TU2PVNNG:3P1L2B7AD2V9EN2SQDOCWROOIZNLO7","1",2,8,2,"5","<p style=""font-size:100px""><b>t</b></p><p style=""position: absolute; top: 30px; right: 30px; text-align:right; font-size:50px"""">N = 2</p>","t",0,73,759,1,"agree",19,18,21,21,20,"25","Male","good","Moderate Agreement","Very Strong Agreement","Strong Agreement","Very Strong Agreement","Strong Agreement","Very Strong Agreement","Strong Agreement","Strong Agreement","Very Strong Agreement","Moderate Agreement","Very Strong Agreement","Strong Agreement","Very Strong Agreement","Strong Agreement","Very Strong Agreement","Strong Agreement","Very Strong Agreement","Very Strong Disagreement"
"57","A3JLI3TU2PVNNG:3P1L2B7AD2V9EN2SQDOCWROOIZNLO7","1",2,9,2,"5","<p style=""font-size:100px""><b>P</b></p><p style=""position: absolute; top: 30px; right: 30px; text-align:right; font-size:50px"""">N = 2</p>","P",0,73,952,1,"agree",19,18,21,21,20,"25","Male","good","Moderate Agreement","Very Strong Agreement","Strong Agreement","Very Strong Agreement","Strong Agreement","Very Strong Agreement","Strong Agreement","Strong Agreement","Very Strong Agreement","Moderate Agreement","Very Strong Agreement","Strong Agreement","Very Strong Agreement","Strong Agreement","Very Strong Agreement","Strong Agreement","Very Strong Agreement","Very Strong Disagreement"
"58","A3JLI3TU2PVNNG:3P1L2B7AD2V9EN2SQDOCWROOIZNLO7","1",2,10,2,"5","<p style=""font-size:100px""><b>P</b></p><p style=""position: absolute; top: 30px; right: 30px; text-align:right; font-size:50px"""">N = 2</p>","P",0,73,447,1,"agree",19,18,21,21,20,"25","Male","good","Moderate Agreement","Very Strong Agreement","Strong Agreement","Very Strong Agreement","Strong Agreement","Very Strong Agreement","Strong Agreement","Strong Agreement","Very Strong Agreement","Moderate Agreement","Very Strong Agreement","Strong Agreement","Very Strong Agreement","Strong Agreement","Very Strong Agreement","Strong Agreement","Very Strong Agreement","Very Strong Disagreement"
"59","A3JLI3TU2PVNNG:3P1L2B7AD2V9EN2SQDOCWROOIZNLO7","1",2,11,2,"5","<p style=""font-size:100px""><b>P</b></p><p style=""position: absolute; top: 30px; right: 30px; text-align:right; font-size:50px"""">N = 2</p>","P",0,73,367,1,"agree",19,18,21,21,20,"25","Male","good","Moderate Agreement","Very Strong Agreement","Strong Agreement","Very Strong Agreement","Strong Agreement","Very Strong Agreement","Strong Agreement","Strong Agreement","Very Strong Agreement","Moderate Agreement","Very Strong Agreement","Strong Agreement","Very Strong Agreement","Strong Agreement","Very Strong Agreement","Strong Agreement","Very Strong Agreement","Very Strong Disagreement"
"60","A3JLI3TU2PVNNG:3P1L2B7AD2V9EN2SQDOCWROOIZNLO7","1",2,12,2,"5","<p style=""font-size:100px""><b>P</b></p><p style=""position: absolute; top: 30px; right: 30px; text-align:right; font-size:50px"""">N = 2</p>","P",0,73,456,1,"agree",19,18,21,21,20,"25","Male","good","Moderate Agreement","Very Strong Agreement","Strong Agreement","Very Strong Agreement","Strong Agreement","Very Strong Agreement","Strong Agreement","Strong Agreement","Very Strong Agreement","Moderate Agreement","Very Strong Agreement","Strong Agreement","Very Strong Agreement","Strong Agreement","Very Strong Agreement","Strong Agreement","Very Strong Agreement","Very Strong Disagreement"
"61","A3JLI3TU2PVNNG:3P1L2B7AD2V9EN2SQDOCWROOIZNLO7","1",3,1,1,"5","<p style=""font-size:100px""><b>G</b></p><p style=""position: absolute; top: 30px; right: 30px; text-align:right; font-size:50px"""">N = 1</p>","G",0,NA,NA,0,"agree",18,21,15,14,12,"25","Male","good","Moderate Agreement","Very Strong Agreement","Strong Agreement","Very Strong Agreement","Strong Agreement","Very Strong Agreement","Strong Agreement","Strong Agreement","Very Strong Agreement","Moderate Agreement","Very Strong Agreement","Strong Agreement","Very Strong Agreement","Strong Agreement","Very Strong Agreement","Strong Agreement","Very Strong Agreement","Very Strong Disagreement"
"62","A3JLI3TU2PVNNG:3P1L2B7AD2V9EN2SQDOCWROOIZNLO7","1",3,2,1,"5","<p style=""font-size:100px""><b>d</b></p><p style=""position: absolute; top: 30px; right: 30px; text-align:right; font-size:50px"""">N = 1</p>","d",0,NA,NA,0,"agree",18,21,15,14,12,"25","Male","good","Moderate Agreement","Very Strong Agreement","Strong Agreement","Very Strong Agreement","Strong Agreement","Very Strong Agreement","Strong Agreement","Strong Agreement","Very Strong Agreement","Moderate Agreement","Very Strong Agreement","Strong Agreement","Very Strong Agreement","Strong Agreement","Very Strong Agreement","Strong Agreement","Very Strong Agreement","Very Strong Disagreement"
"63","A3JLI3TU2PVNNG:3P1L2B7AD2V9EN2SQDOCWROOIZNLO7","1",3,3,1,"5","<p style=""font-size:100px""><b>t</b></p><p style=""position: absolute; top: 30px; right: 30px; text-align:right; font-size:50px"""">N = 1</p>","t",0,NA,NA,0,"agree",18,21,15,14,12,"25","Male","good","Moderate Agreement","Very Strong Agreement","Strong Agreement","Very Strong Agreement","Strong Agreement","Very Strong Agreement","Strong Agreement","Strong Agreement","Very Strong Agreement","Moderate Agreement","Very Strong Agreement","Strong Agreement","Very Strong Agreement","Strong Agreement","Very Strong Agreement","Strong Agreement","Very Strong Agreement","Very Strong Disagreement"
"64","A3JLI3TU2PVNNG:3P1L2B7AD2V9EN2SQDOCWROOIZNLO7","1",3,4,1,"5","<p style=""font-size:100px""><b>v</b></p><p style=""position: absolute; top: 30px; right: 30px; text-align:right; font-size:50px"""">N = 1</p>","v",0,73,286,1,"agree",18,21,15,14,12,"25","Male","good","Moderate Agreement","Very Strong Agreement","Strong Agreement","Very Strong Agreement","Strong Agreement","Very Strong Agreement","Strong Agreement","Strong Agreement","Very Strong Agreement","Moderate Agreement","Very Strong Agreement","Strong Agreement","Very Strong Agreement","Strong Agreement","Very Strong Agreement","Strong Agreement","Very Strong Agreement","Very Strong Disagreement"
"65","A3JLI3TU2PVNNG:3P1L2B7AD2V9EN2SQDOCWROOIZNLO7","1",3,5,1,"5","<p style=""font-size:100px""><b>T</b></p><p style=""position: absolute; top: 30px; right: 30px; text-align:right; font-size:50px"""">N = 1</p>","T",0,73,224,1,"agree",18,21,15,14,12,"25","Male","good","Moderate Agreement","Very Strong Agreement","Strong Agreement","Very Strong Agreement","Strong Agreement","Very Strong Agreement","Strong Agreement","Strong Agreement","Very Strong Agreement","Moderate Agreement","Very Strong Agreement","Strong Agreement","Very Strong Agreement","Strong Agreement","Very Strong Agreement","Strong Agreement","Very Strong Agreement","Very Strong Disagreement"
"66","A3JLI3TU2PVNNG:3P1L2B7AD2V9EN2SQDOCWROOIZNLO7","1",3,6,1,"5","<p style=""font-size:100px""><b>B</b></p><p style=""position: absolute; top: 30px; right: 30px; text-align:right; font-size:50px"""">N = 1</p>","B",0,NA,NA,0,"agree",18,21,15,14,12,"25","Male","good","Moderate Agreement","Very Strong Agreement","Strong Agreement","Very Strong Agreement","Strong Agreement","Very Strong Agreement","Strong Agreement","Strong Agreement","Very Strong Agreement","Moderate Agreement","Very Strong Agreement","Strong Agreement","Very Strong Agreement","Strong Agreement","Very Strong Agreement","Strong Agreement","Very Strong Agreement","Very Strong Disagreement"
"67","A3JLI3TU2PVNNG:3P1L2B7AD2V9EN2SQDOCWROOIZNLO7","1",3,7,1,"5","<p style=""font-size:100px""><b>p</b></p><p style=""position: absolute; top: 30px; right: 30px; text-align:right; font-size:50px"""">N = 1</p>","p",0,73,287,1,"agree",18,21,15,14,12,"25","Male","good","Moderate Agreement","Very Strong Agreement","Strong Agreement","Very Strong Agreement","Strong Agreement","Very Strong Agreement","Strong Agreement","Strong Agreement","Very Strong Agreement","Moderate Agreement","Very Strong Agreement","Strong Agreement","Very Strong Agreement","Strong Agreement","Very Strong Agreement","Strong Agreement","Very Strong Agreement","Very Strong Disagreement"
"68","A3JLI3TU2PVNNG:3P1L2B7AD2V9EN2SQDOCWROOIZNLO7","1",3,8,1,"5","<p style=""font-size:100px""><b>p</b></p><p style=""position: absolute; top: 30px; right: 30px; text-align:right; font-size:50px"""">N = 1</p>","p",0,73,224,1,"agree",18,21,15,14,12,"25","Male","good","Moderate Agreement","Very Strong Agreement","Strong Agreement","Very Strong Agreement","Strong Agreement","Very Strong Agreement","Strong Agreement","Strong Agreement","Very Strong Agreement","Moderate Agreement","Very Strong Agreement","Strong Agreement","Very Strong Agreement","Strong Agreement","Very Strong Agreement","Strong Agreement","Very Strong Agreement","Very Strong Disagreement"
"69","A3JLI3TU2PVNNG:3P1L2B7AD2V9EN2SQDOCWROOIZNLO7","1",3,9,1,"5","<p style=""font-size:100px""><b>T</b></p><p style=""position: absolute; top: 30px; right: 30px; text-align:right; font-size:50px"""">N = 1</p>","T",0,NA,NA,0,"agree",18,21,15,14,12,"25","Male","good","Moderate Agreement","Very Strong Agreement","Strong Agreement","Very Strong Agreement","Strong Agreement","Very Strong Agreement","Strong Agreement","Strong Agreement","Very Strong Agreement","Moderate Agreement","Very Strong Agreement","Strong Agreement","Very Strong Agreement","Strong Agreement","Very Strong Agreement","Strong Agreement","Very Strong Agreement","Very Strong Disagreement"
"70","A3JLI3TU2PVNNG:3P1L2B7AD2V9EN2SQDOCWROOIZNLO7","1",3,10,1,"5","<p style=""font-size:100px""><b>T</b></p><p style=""position: absolute; top: 30px; right: 30px; text-align:right; font-size:50px"""">N = 1</p>","T",0,NA,NA,0,"agree",18,21,15,14,12,"25","Male","good","Moderate Agreement","Very Strong Agreement","Strong Agreement","Very Strong Agreement","Strong Agreement","Very Strong Agreement","Strong Agreement","Strong Agreement","Very Strong Agreement","Moderate Agreement","Very Strong Agreement","Strong Agreement","Very Strong Agreement","Strong Agreement","Very Strong Agreement","Strong Agreement","Very Strong Agreement","Very Strong Disagreement"
"71","A3JLI3TU2PVNNG:3P1L2B7AD2V9EN2SQDOCWROOIZNLO7","1",3,11,1,"5","<p style=""font-size:100px""><b>T</b></p><p style=""position: absolute; top: 30px; right: 30px; text-align:right; font-size:50px"""">N = 1</p>","T",0,NA,NA,0,"agree",18,21,15,14,12,"25","Male","good","Moderate Agreement","Very Strong Agreement","Strong Agreement","Very Strong Agreement","Strong Agreement","Very Strong Agreement","Strong Agreement","Strong Agreement","Very Strong Agreement","Moderate Agreement","Very Strong Agreement","Strong Agreement","Very Strong Agreement","Strong Agreement","Very Strong Agreement","Strong Agreement","Very Strong Agreement","Very Strong Disagreement"
"72","A3JLI3TU2PVNNG:3P1L2B7AD2V9EN2SQDOCWROOIZNLO7","1",3,12,1,"5","<p style=""font-size:100px""><b>T</b></p><p style=""position: absolute; top: 30px; right: 30px; text-align:right; font-size:50px"""">N = 1</p>","T",0,NA,NA,0,"agree",18,21,15,14,12,"25","Male","good","Moderate Agreement","Very Strong Agreement","Strong Agreement","Very Strong Agreement","Strong Agreement","Very Strong Agreement","Strong Agreement","Strong Agreement","Very Strong Agreement","Moderate Agreement","Very Strong Agreement","Strong Agreement","Very Strong Agreement","Strong Agreement","Very Strong Agreement","Strong Agreement","Very Strong Agreement","Very Strong Disagreement"
"73","A3JLI3TU2PVNNG:3P1L2B7AD2V9EN2SQDOCWROOIZNLO7","1",4,1,3,"5","<p style=""font-size:100px""><b>p</b></p><p style=""position: absolute; top: 30px; right: 30px; text-align:right; font-size:50px"""">N = 3</p>","p",0,NA,NA,0,"agree",14,19,16,19,18,"25","Male","good","Moderate Agreement","Very Strong Agreement","Strong Agreement","Very Strong Agreement","Strong Agreement","Very Strong Agreement","Strong Agreement","Strong Agreement","Very Strong Agreement","Moderate Agreement","Very Strong Agreement","Strong Agreement","Very Strong Agreement","Strong Agreement","Very Strong Agreement","Strong Agreement","Very Strong Agreement","Very Strong Disagreement"
"74","A3JLI3TU2PVNNG:3P1L2B7AD2V9EN2SQDOCWROOIZNLO7","1",4,2,3,"5","<p style=""font-size:100px""><b>d</b></p><p style=""position: absolute; top: 30px; right: 30px; text-align:right; font-size:50px"""">N = 3</p>","d",0,NA,NA,0,"agree",14,19,16,19,18,"25","Male","good","Moderate Agreement","Very Strong Agreement","Strong Agreement","Very Strong Agreement","Strong Agreement","Very Strong Agreement","Strong Agreement","Strong Agreement","Very Strong Agreement","Moderate Agreement","Very Strong Agreement","Strong Agreement","Very Strong Agreement","Strong Agreement","Very Strong Agreement","Strong Agreement","Very Strong Agreement","Very Strong Disagreement"
"75","A3JLI3TU2PVNNG:3P1L2B7AD2V9EN2SQDOCWROOIZNLO7","1",4,3,3,"5","<p style=""font-size:100px""><b>v</b></p><p style=""position: absolute; top: 30px; right: 30px; text-align:right; font-size:50px"""">N = 3</p>","v",0,NA,NA,0,"agree",14,19,16,19,18,"25","Male","good","Moderate Agreement","Very Strong Agreement","Strong Agreement","Very Strong Agreement","Strong Agreement","Very Strong Agreement","Strong Agreement","Strong Agreement","Very Strong Agreement","Moderate Agreement","Very Strong Agreement","Strong Agreement","Very Strong Agreement","Strong Agreement","Very Strong Agreement","Strong Agreement","Very Strong Agreement","Very Strong Disagreement"
"76","A3JLI3TU2PVNNG:3P1L2B7AD2V9EN2SQDOCWROOIZNLO7","1",4,4,3,"5","<p style=""font-size:100px""><b>p</b></p><p style=""position: absolute; top: 30px; right: 30px; text-align:right; font-size:50px"""">N = 3</p>","p",0,NA,NA,0,"agree",14,19,16,19,18,"25","Male","good","Moderate Agreement","Very Strong Agreement","Strong Agreement","Very Strong Agreement","Strong Agreement","Very Strong Agreement","Strong Agreement","Strong Agreement","Very Strong Agreement","Moderate Agreement","Very Strong Agreement","Strong Agreement","Very Strong Agreement","Strong Agreement","Very Strong Agreement","Strong Agreement","Very Strong Agreement","Very Strong Disagreement"
"77","A3JLI3TU2PVNNG:3P1L2B7AD2V9EN2SQDOCWROOIZNLO7","1",4,5,3,"5","<p style=""font-size:100px""><b>G</b></p><p style=""position: absolute; top: 30px; right: 30px; text-align:right; font-size:50px"""">N = 3</p>","G",0,NA,NA,0,"agree",14,19,16,19,18,"25","Male","good","Moderate Agreement","Very Strong Agreement","Strong Agreement","Very Strong Agreement","Strong Agreement","Very Strong Agreement","Strong Agreement","Strong Agreement","Very Strong Agreement","Moderate Agreement","Very Strong Agreement","Strong Agreement","Very Strong Agreement","Strong Agreement","Very Strong Agreement","Strong Agreement","Very Strong Agreement","Very Strong Disagreement"
"78","A3JLI3TU2PVNNG:3P1L2B7AD2V9EN2SQDOCWROOIZNLO7","1",4,6,3,"5","<p style=""font-size:100px""><b>t</b></p><p style=""position: absolute; top: 30px; right: 30px; text-align:right; font-size:50px"""">N = 3</p>","t",0,NA,NA,0,"agree",14,19,16,19,18,"25","Male","good","Moderate Agreement","Very Strong Agreement","Strong Agreement","Very Strong Agreement","Strong Agreement","Very Strong Agreement","Strong Agreement","Strong Agreement","Very Strong Agreement","Moderate Agreement","Very Strong Agreement","Strong Agreement","Very Strong Agreement","Strong Agreement","Very Strong Agreement","Strong Agreement","Very Strong Agreement","Very Strong Disagreement"
"79","A3JLI3TU2PVNNG:3P1L2B7AD2V9EN2SQDOCWROOIZNLO7","1",4,7,3,"5","<p style=""font-size:100px""><b>p</b></p><p style=""position: absolute; top: 30px; right: 30px; text-align:right; font-size:50px"""">N = 3</p>","p",0,NA,NA,0,"agree",14,19,16,19,18,"25","Male","good","Moderate Agreement","Very Strong Agreement","Strong Agreement","Very Strong Agreement","Strong Agreement","Very Strong Agreement","Strong Agreement","Strong Agreement","Very Strong Agreement","Moderate Agreement","Very Strong Agreement","Strong Agreement","Very Strong Agreement","Strong Agreement","Very Strong Agreement","Strong Agreement","Very Strong Agreement","Very Strong Disagreement"
"80","A3JLI3TU2PVNNG:3P1L2B7AD2V9EN2SQDOCWROOIZNLO7","1",4,8,3,"5","<p style=""font-size:100px""><b>B</b></p><p style=""position: absolute; top: 30px; right: 30px; text-align:right; font-size:50px"""">N = 3</p>","B",0,NA,NA,0,"agree",14,19,16,19,18,"25","Male","good","Moderate Agreement","Very Strong Agreement","Strong Agreement","Very Strong Agreement","Strong Agreement","Very Strong Agreement","Strong Agreement","Strong Agreement","Very Strong Agreement","Moderate Agreement","Very Strong Agreement","Strong Agreement","Very Strong Agreement","Strong Agreement","Very Strong Agreement","Strong Agreement","Very Strong Agreement","Very Strong Disagreement"
"81","A3JLI3TU2PVNNG:3P1L2B7AD2V9EN2SQDOCWROOIZNLO7","1",4,9,3,"5","<p style=""font-size:100px""><b>b</b></p><p style=""position: absolute; top: 30px; right: 30px; text-align:right; font-size:50px"""">N = 3</p>","b",0,NA,NA,0,"agree",14,19,16,19,18,"25","Male","good","Moderate Agreement","Very Strong Agreement","Strong Agreement","Very Strong Agreement","Strong Agreement","Very Strong Agreement","Strong Agreement","Strong Agreement","Very Strong Agreement","Moderate Agreement","Very Strong Agreement","Strong Agreement","Very Strong Agreement","Strong Agreement","Very Strong Agreement","Strong Agreement","Very Strong Agreement","Very Strong Disagreement"
"82","A3JLI3TU2PVNNG:3P1L2B7AD2V9EN2SQDOCWROOIZNLO7","1",4,10,3,"5","<p style=""font-size:100px""><b>D</b></p><p style=""position: absolute; top: 30px; right: 30px; text-align:right; font-size:50px"""">N = 3</p>","D",0,NA,NA,0,"agree",14,19,16,19,18,"25","Male","good","Moderate Agreement","Very Strong Agreement","Strong Agreement","Very Strong Agreement","Strong Agreement","Very Strong Agreement","Strong Agreement","Strong Agreement","Very Strong Agreement","Moderate Agreement","Very Strong Agreement","Strong Agreement","Very Strong Agreement","Strong Agreement","Very Strong Agreement","Strong Agreement","Very Strong Agreement","Very Strong Disagreement"
"83","A3JLI3TU2PVNNG:3P1L2B7AD2V9EN2SQDOCWROOIZNLO7","1",4,11,3,"5","<p style=""font-size:100px""><b>B</b></p><p style=""position: absolute; top: 30px; right: 30px; text-align:right; font-size:50px"""">N = 3</p>","B",0,NA,NA,0,"agree",14,19,16,19,18,"25","Male","good","Moderate Agreement","Very Strong Agreement","Strong Agreement","Very Strong Agreement","Strong Agreement","Very Strong Agreement","Strong Agreement","Strong Agreement","Very Strong Agreement","Moderate Agreement","Very Strong Agreement","Strong Agreement","Very Strong Agreement","Strong Agreement","Very Strong Agreement","Strong Agreement","Very Strong Agreement","Very Strong Disagreement"
"84","A3JLI3TU2PVNNG:3P1L2B7AD2V9EN2SQDOCWROOIZNLO7","1",4,12,3,"5","<p style=""font-size:100px""><b>b</b></p><p style=""position: absolute; top: 30px; right: 30px; text-align:right; font-size:50px"""">N = 3</p>","b",0,NA,NA,0,"agree",14,19,16,19,18,"25","Male","good","Moderate Agreement","Very Strong Agreement","Strong Agreement","Very Strong Agreement","Strong Agreement","Very Strong Agreement","Strong Agreement","Strong Agreement","Very Strong Agreement","Moderate Agreement","Very Strong Agreement","Strong Agreement","Very Strong Agreement","Strong Agreement","Very Strong Agreement","Strong Agreement","Very Strong Agreement","Very Strong Disagreement"
"85","A3JLI3TU2PVNNG:3P1L2B7AD2V9EN2SQDOCWROOIZNLO7","1",5,1,3,"50","<p style=""font-size:100px""><b>V</b></p><p style=""position: absolute; top: 30px; right: 30px; text-align:right; font-size:50px"""">N = 3</p>","V",0,NA,NA,0,"agree",19,20,20,20,21,"25","Male","good","Moderate Agreement","Very Strong Agreement","Strong Agreement","Very Strong Agreement","Strong Agreement","Very Strong Agreement","Strong Agreement","Strong Agreement","Very Strong Agreement","Moderate Agreement","Very Strong Agreement","Strong Agreement","Very Strong Agreement","Strong Agreement","Very Strong Agreement","Strong Agreement","Very Strong Agreement","Very Strong Disagreement"
"86","A3JLI3TU2PVNNG:3P1L2B7AD2V9EN2SQDOCWROOIZNLO7","1",5,2,3,"50","<p style=""font-size:100px""><b>t</b></p><p style=""position: absolute; top: 30px; right: 30px; text-align:right; font-size:50px"""">N = 3</p>","t",0,NA,NA,0,"agree",19,20,20,20,21,"25","Male","good","Moderate Agreement","Very Strong Agreement","Strong Agreement","Very Strong Agreement","Strong Agreement","Very Strong Agreement","Strong Agreement","Strong Agreement","Very Strong Agreement","Moderate Agreement","Very Strong Agreement","Strong Agreement","Very Strong Agreement","Strong Agreement","Very Strong Agreement","Strong Agreement","Very Strong Agreement","Very Strong Disagreement"
"87","A3JLI3TU2PVNNG:3P1L2B7AD2V9EN2SQDOCWROOIZNLO7","1",5,3,3,"50","<p style=""font-size:100px""><b>p</b></p><p style=""position: absolute; top: 30px; right: 30px; text-align:right; font-size:50px"""">N = 3</p>","p",0,NA,NA,0,"agree",19,20,20,20,21,"25","Male","good","Moderate Agreement","Very Strong Agreement","Strong Agreement","Very Strong Agreement","Strong Agreement","Very Strong Agreement","Strong Agreement","Strong Agreement","Very Strong Agreement","Moderate Agreement","Very Strong Agreement","Strong Agreement","Very Strong Agreement","Strong Agreement","Very Strong Agreement","Strong Agreement","Very Strong Agreement","Very Strong Disagreement"
"88","A3JLI3TU2PVNNG:3P1L2B7AD2V9EN2SQDOCWROOIZNLO7","1",5,4,3,"50","<p style=""font-size:100px""><b>p</b></p><p style=""position: absolute; top: 30px; right: 30px; text-align:right; font-size:50px"""">N = 3</p>","p",0,NA,NA,0,"agree",19,20,20,20,21,"25","Male","good","Moderate Agreement","Very Strong Agreement","Strong Agreement","Very Strong Agreement","Strong Agreement","Very Strong Agreement","Strong Agreement","Strong Agreement","Very Strong Agreement","Moderate Agreement","Very Strong Agreement","Strong Agreement","Very Strong Agreement","Strong Agreement","Very Strong Agreement","Strong Agreement","Very Strong Agreement","Very Strong Disagreement"
"89","A3JLI3TU2PVNNG:3P1L2B7AD2V9EN2SQDOCWROOIZNLO7","1",5,5,3,"50","<p style=""font-size:100px""><b>t</b></p><p style=""position: absolute; top: 30px; right: 30px; text-align:right; font-size:50px"""">N = 3</p>","t",0,NA,NA,0,"agree",19,20,20,20,21,"25","Male","good","Moderate Agreement","Very Strong Agreement","Strong Agreement","Very Strong Agreement","Strong Agreement","Very Strong Agreement","Strong Agreement","Strong Agreement","Very Strong Agreement","Moderate Agreement","Very Strong Agreement","Strong Agreement","Very Strong Agreement","Strong Agreement","Very Strong Agreement","Strong Agreement","Very Strong Agreement","Very Strong Disagreement"
"90","A3JLI3TU2PVNNG:3P1L2B7AD2V9EN2SQDOCWROOIZNLO7","1",5,6,3,"50","<p style=""font-size:100px""><b>V</b></p><p style=""position: absolute; top: 30px; right: 30px; text-align:right; font-size:50px"""">N = 3</p>","V",0,NA,NA,0,"agree",19,20,20,20,21,"25","Male","good","Moderate Agreement","Very Strong Agreement","Strong Agreement","Very Strong Agreement","Strong Agreement","Very Strong Agreement","Strong Agreement","Strong Agreement","Very Strong Agreement","Moderate Agreement","Very Strong Agreement","Strong Agreement","Very Strong Agreement","Strong Agreement","Very Strong Agreement","Strong Agreement","Very Strong Agreement","Very Strong Disagreement"
"91","A3JLI3TU2PVNNG:3P1L2B7AD2V9EN2SQDOCWROOIZNLO7","1",5,7,3,"50","<p style=""font-size:100px""><b>T</b></p><p style=""position: absolute; top: 30px; right: 30px; text-align:right; font-size:50px"""">N = 3</p>","T",0,NA,NA,0,"agree",19,20,20,20,21,"25","Male","good","Moderate Agreement","Very Strong Agreement","Strong Agreement","Very Strong Agreement","Strong Agreement","Very Strong Agreement","Strong Agreement","Strong Agreement","Very Strong Agreement","Moderate Agreement","Very Strong Agreement","Strong Agreement","Very Strong Agreement","Strong Agreement","Very Strong Agreement","Strong Agreement","Very Strong Agreement","Very Strong Disagreement"
"92","A3JLI3TU2PVNNG:3P1L2B7AD2V9EN2SQDOCWROOIZNLO7","1",5,8,3,"50","<p style=""font-size:100px""><b>D</b></p><p style=""position: absolute; top: 30px; right: 30px; text-align:right; font-size:50px"""">N = 3</p>","D",0,NA,NA,0,"agree",19,20,20,20,21,"25","Male","good","Moderate Agreement","Very Strong Agreement","Strong Agreement","Very Strong Agreement","Strong Agreement","Very Strong Agreement","Strong Agreement","Strong Agreement","Very Strong Agreement","Moderate Agreement","Very Strong Agreement","Strong Agreement","Very Strong Agreement","Strong Agreement","Very Strong Agreement","Strong Agreement","Very Strong Agreement","Very Strong Disagreement"
"93","A3JLI3TU2PVNNG:3P1L2B7AD2V9EN2SQDOCWROOIZNLO7","1",5,9,3,"50","<p style=""font-size:100px""><b>V</b></p><p style=""position: absolute; top: 30px; right: 30px; text-align:right; font-size:50px"""">N = 3</p>","V",0,NA,NA,0,"agree",19,20,20,20,21,"25","Male","good","Moderate Agreement","Very Strong Agreement","Strong Agreement","Very Strong Agreement","Strong Agreement","Very Strong Agreement","Strong Agreement","Strong Agreement","Very Strong Agreement","Moderate Agreement","Very Strong Agreement","Strong Agreement","Very Strong Agreement","Strong Agreement","Very Strong Agreement","Strong Agreement","Very Strong Agreement","Very Strong Disagreement"
"94","A3JLI3TU2PVNNG:3P1L2B7AD2V9EN2SQDOCWROOIZNLO7","1",5,10,3,"50","<p style=""font-size:100px""><b>T</b></p><p style=""position: absolute; top: 30px; right: 30px; text-align:right; font-size:50px"""">N = 3</p>","T",0,NA,NA,0,"agree",19,20,20,20,21,"25","Male","good","Moderate Agreement","Very Strong Agreement","Strong Agreement","Very Strong Agreement","Strong Agreement","Very Strong Agreement","Strong Agreement","Strong Agreement","Very Strong Agreement","Moderate Agreement","Very Strong Agreement","Strong Agreement","Very Strong Agreement","Strong Agreement","Very Strong Agreement","Strong Agreement","Very Strong Agreement","Very Strong Disagreement"
"95","A3JLI3TU2PVNNG:3P1L2B7AD2V9EN2SQDOCWROOIZNLO7","1",5,11,3,"50","<p style=""font-size:100px""><b>D</b></p><p style=""position: absolute; top: 30px; right: 30px; text-align:right; font-size:50px"""">N = 3</p>","D",0,NA,NA,0,"agree",19,20,20,20,21,"25","Male","good","Moderate Agreement","Very Strong Agreement","Strong Agreement","Very Strong Agreement","Strong Agreement","Very Strong Agreement","Strong Agreement","Strong Agreement","Very Strong Agreement","Moderate Agreement","Very Strong Agreement","Strong Agreement","Very Strong Agreement","Strong Agreement","Very Strong Agreement","Strong Agreement","Very Strong Agreement","Very Strong Disagreement"
"96","A3JLI3TU2PVNNG:3P1L2B7AD2V9EN2SQDOCWROOIZNLO7","1",5,12,3,"50","<p style=""font-size:100px""><b>B</b></p><p style=""position: absolute; top: 30px; right: 30px; text-align:right; font-size:50px"""">N = 3</p>","B",0,NA,NA,0,"agree",19,20,20,20,21,"25","Male","good","Moderate Agreement","Very Strong Agreement","Strong Agreement","Very Strong Agreement","Strong Agreement","Very Strong Agreement","Strong Agreement","Strong Agreement","Very Strong Agreement","Moderate Agreement","Very Strong Agreement","Strong Agreement","Very Strong Agreement","Strong Agreement","Very Strong Agreement","Strong Agreement","Very Strong Agreement","Very Strong Disagreement"
"97","A3JLI3TU2PVNNG:3P1L2B7AD2V9EN2SQDOCWROOIZNLO7","1",6,1,1,"5","<p style=""font-size:100px""><b>D</b></p><p style=""position: absolute; top: 30px; right: 30px; text-align:right; font-size:50px"""">N = 1</p>","D",0,NA,NA,0,"agree",19,19,19,19,19,"25","Male","good","Moderate Agreement","Very Strong Agreement","Strong Agreement","Very Strong Agreement","Strong Agreement","Very Strong Agreement","Strong Agreement","Strong Agreement","Very Strong Agreement","Moderate Agreement","Very Strong Agreement","Strong Agreement","Very Strong Agreement","Strong Agreement","Very Strong Agreement","Strong Agreement","Very Strong Agreement","Very Strong Disagreement"
"98","A3JLI3TU2PVNNG:3P1L2B7AD2V9EN2SQDOCWROOIZNLO7","1",6,2,1,"5","<p style=""font-size:100px""><b>D</b></p><p style=""position: absolute; top: 30px; right: 30px; text-align:right; font-size:50px"""">N = 1</p>","D",0,NA,NA,0,"agree",19,19,19,19,19,"25","Male","good","Moderate Agreement","Very Strong Agreement","Strong Agreement","Very Strong Agreement","Strong Agreement","Very Strong Agreement","Strong Agreement","Strong Agreement","Very Strong Agreement","Moderate Agreement","Very Strong Agreement","Strong Agreement","Very Strong Agreement","Strong Agreement","Very Strong Agreement","Strong Agreement","Very Strong Agreement","Very Strong Disagreement"
"99","A3JLI3TU2PVNNG:3P1L2B7AD2V9EN2SQDOCWROOIZNLO7","1",6,3,1,"5","<p style=""font-size:100px""><b>v</b></p><p style=""position: absolute; top: 30px; right: 30px; text-align:right; font-size:50px"""">N = 1</p>","v",0,NA,NA,0,"agree",19,19,19,19,19,"25","Male","good","Moderate Agreement","Very Strong Agreement","Strong Agreement","Very Strong Agreement","Strong Agreement","Very Strong Agreement","Strong Agreement","Strong Agreement","Very Strong Agreement","Moderate Agreement","Very Strong Agreement","Strong Agreement","Very Strong Agreement","Strong Agreement","Very Strong Agreement","Strong Agreement","Very Strong Agreement","Very Strong Disagreement"
"100","A3JLI3TU2PVNNG:3P1L2B7AD2V9EN2SQDOCWROOIZNLO7","1",6,4,1,"5","<p style=""font-size:100px""><b>t</b></p><p style=""position: absolute; top: 30px; right: 30px; text-align:right; font-size:50px"""">N = 1</p>","t",0,NA,NA,0,"agree",19,19,19,19,19,"25","Male","good","Moderate Agreement","Very Strong Agreement","Strong Agreement","Very Strong Agreement","Strong Agreement","Very Strong Agreement","Strong Agreement","Strong Agreement","Very Strong Agreement","Moderate Agreement","Very Strong Agreement","Strong Agreement","Very Strong Agreement","Strong Agreement","Very Strong Agreement","Strong Agreement","Very Strong Agreement","Very Strong Disagreement"
"101","A3JLI3TU2PVNNG:3P1L2B7AD2V9EN2SQDOCWROOIZNLO7","1",6,5,1,"5","<p style=""font-size:100px""><b>t</b></p><p style=""position: absolute; top: 30px; right: 30px; text-align:right; font-size:50px"""">N = 1</p>","t",0,NA,NA,0,"agree",19,19,19,19,19,"25","Male","good","Moderate Agreement","Very Strong Agreement","Strong Agreement","Very Strong Agreement","Strong Agreement","Very Strong Agreement","Strong Agreement","Strong Agreement","Very Strong Agreement","Moderate Agreement","Very Strong Agreement","Strong Agreement","Very Strong Agreement","Strong Agreement","Very Strong Agreement","Strong Agreement","Very Strong Agreement","Very Strong Disagreement"
"102","A3JLI3TU2PVNNG:3P1L2B7AD2V9EN2SQDOCWROOIZNLO7","1",6,6,1,"5","<p style=""font-size:100px""><b>B</b></p><p style=""position: absolute; top: 30px; right: 30px; text-align:right; font-size:50px"""">N = 1</p>","B",0,NA,NA,0,"agree",19,19,19,19,19,"25","Male","good","Moderate Agreement","Very Strong Agreement","Strong Agreement","Very Strong Agreement","Strong Agreement","Very Strong Agreement","Strong Agreement","Strong Agreement","Very Strong Agreement","Moderate Agreement","Very Strong Agreement","Strong Agreement","Very Strong Agreement","Strong Agreement","Very Strong Agreement","Strong Agreement","Very Strong Agreement","Very Strong Disagreement"
"103","A3JLI3TU2PVNNG:3P1L2B7AD2V9EN2SQDOCWROOIZNLO7","1",6,7,1,"5","<p style=""font-size:100px""><b>B</b></p><p style=""position: absolute; top: 30px; right: 30px; text-align:right; font-size:50px"""">N = 1</p>","B",0,NA,NA,0,"agree",19,19,19,19,19,"25","Male","good","Moderate Agreement","Very Strong Agreement","Strong Agreement","Very Strong Agreement","Strong Agreement","Very Strong Agreement","Strong Agreement","Strong Agreement","Very Strong Agreement","Moderate Agreement","Very Strong Agreement","Strong Agreement","Very Strong Agreement","Strong Agreement","Very Strong Agreement","Strong Agreement","Very Strong Agreement","Very Strong Disagreement"
"104","A3JLI3TU2PVNNG:3P1L2B7AD2V9EN2SQDOCWROOIZNLO7","1",6,8,1,"5","<p style=""font-size:100px""><b>T</b></p><p style=""position: absolute; top: 30px; right: 30px; text-align:right; font-size:50px"""">N = 1</p>","T",0,NA,NA,0,"agree",19,19,19,19,19,"25","Male","good","Moderate Agreement","Very Strong Agreement","Strong Agreement","Very Strong Agreement","Strong Agreement","Very Strong Agreement","Strong Agreement","Strong Agreement","Very Strong Agreement","Moderate Agreement","Very Strong Agreement","Strong Agreement","Very Strong Agreement","Strong Agreement","Very Strong Agreement","Strong Agreement","Very Strong Agreement","Very Strong Disagreement"
"105","A3JLI3TU2PVNNG:3P1L2B7AD2V9EN2SQDOCWROOIZNLO7","1",6,9,1,"5","<p style=""font-size:100px""><b>T</b></p><p style=""position: absolute; top: 30px; right: 30px; text-align:right; font-size:50px"""">N = 1</p>","T",0,NA,NA,0,"agree",19,19,19,19,19,"25","Male","good","Moderate Agreement","Very Strong Agreement","Strong Agreement","Very Strong Agreement","Strong Agreement","Very Strong Agreement","Strong Agreement","Strong Agreement","Very Strong Agreement","Moderate Agreement","Very Strong Agreement","Strong Agreement","Very Strong Agreement","Strong Agreement","Very Strong Agreement","Strong Agreement","Very Strong Agreement","Very Strong Disagreement"
"106","A3JLI3TU2PVNNG:3P1L2B7AD2V9EN2SQDOCWROOIZNLO7","1",6,10,1,"5","<p style=""font-size:100px""><b>g</b></p><p style=""position: absolute; top: 30px; right: 30px; text-align:right; font-size:50px"""">N = 1</p>","g",0,NA,NA,0,"agree",19,19,19,19,19,"25","Male","good","Moderate Agreement","Very Strong Agreement","Strong Agreement","Very Strong Agreement","Strong Agreement","Very Strong Agreement","Strong Agreement","Strong Agreement","Very Strong Agreement","Moderate Agreement","Very Strong Agreement","Strong Agreement","Very Strong Agreement","Strong Agreement","Very Strong Agreement","Strong Agreement","Very Strong Agreement","Very Strong Disagreement"
"107","A3JLI3TU2PVNNG:3P1L2B7AD2V9EN2SQDOCWROOIZNLO7","1",6,11,1,"5","<p style=""font-size:100px""><b>V</b></p><p style=""position: absolute; top: 30px; right: 30px; text-align:right; font-size:50px"""">N = 1</p>","V",0,NA,NA,0,"agree",19,19,19,19,19,"25","Male","good","Moderate Agreement","Very Strong Agreement","Strong Agreement","Very Strong Agreement","Strong Agreement","Very Strong Agreement","Strong Agreement","Strong Agreement","Very Strong Agreement","Moderate Agreement","Very Strong Agreement","Strong Agreement","Very Strong Agreement","Strong Agreement","Very Strong Agreement","Strong Agreement","Very Strong Agreement","Very Strong Disagreement"
"108","A3JLI3TU2PVNNG:3P1L2B7AD2V9EN2SQDOCWROOIZNLO7","1",6,12,1,"5","<p style=""font-size:100px""><b>t</b></p><p style=""position: absolute; top: 30px; right: 30px; text-align:right; font-size:50px"""">N = 1</p>","t",0,NA,NA,0,"agree",19,19,19,19,19,"25","Male","good","Moderate Agreement","Very Strong Agreement","Strong Agreement","Very Strong Agreement","Strong Agreement","Very Strong Agreement","Strong Agreement","Strong Agreement","Very Strong Agreement","Moderate Agreement","Very Strong Agreement","Strong Agreement","Very Strong Agreement","Strong Agreement","Very Strong Agreement","Strong Agreement","Very Strong Agreement","Very Strong Disagreement"
"109","A3JLI3TU2PVNNG:3P1L2B7AD2V9EN2SQDOCWROOIZNLO7","2",7,1,2,"50","<p style=""font-size:100px""><b>p</b></p><p style=""position: absolute; top: 30px; right: 30px; text-align:right; font-size:50px"""">N = 2</p>","p",0,73,575,1,"agree",20,20,18,20,19,"25","Male","good","Moderate Agreement","Very Strong Agreement","Strong Agreement","Very Strong Agreement","Strong Agreement","Very Strong Agreement","Strong Agreement","Strong Agreement","Very Strong Agreement","Moderate Agreement","Very Strong Agreement","Strong Agreement","Very Strong Agreement","Strong Agreement","Very Strong Agreement","Strong Agreement","Very Strong Agreement","Very Strong Disagreement"
"110","A3JLI3TU2PVNNG:3P1L2B7AD2V9EN2SQDOCWROOIZNLO7","2",7,2,2,"50","<p style=""font-size:100px""><b>D</b></p><p style=""position: absolute; top: 30px; right: 30px; text-align:right; font-size:50px"""">N = 2</p>","D",0,69,80,0,"agree",20,20,18,20,19,"25","Male","good","Moderate Agreement","Very Strong Agreement","Strong Agreement","Very Strong Agreement","Strong Agreement","Very Strong Agreement","Strong Agreement","Strong Agreement","Very Strong Agreement","Moderate Agreement","Very Strong Agreement","Strong Agreement","Very Strong Agreement","Strong Agreement","Very Strong Agreement","Strong Agreement","Very Strong Agreement","Very Strong Disagreement"
"111","A3JLI3TU2PVNNG:3P1L2B7AD2V9EN2SQDOCWROOIZNLO7","2",7,3,2,"50","<p style=""font-size:100px""><b>p</b></p><p style=""position: absolute; top: 30px; right: 30px; text-align:right; font-size:50px"""">N = 2</p>","p",0,NA,NA,0,"agree",20,20,18,20,19,"25","Male","good","Moderate Agreement","Very Strong Agreement","Strong Agreement","Very Strong Agreement","Strong Agreement","Very Strong Agreement","Strong Agreement","Strong Agreement","Very Strong Agreement","Moderate Agreement","Very Strong Agreement","Strong Agreement","Very Strong Agreement","Strong Agreement","Very Strong Agreement","Strong Agreement","Very Strong Agreement","Very Strong Disagreement"
"112","A3JLI3TU2PVNNG:3P1L2B7AD2V9EN2SQDOCWROOIZNLO7","2",7,4,2,"50","<p style=""font-size:100px""><b>p</b></p><p style=""position: absolute; top: 30px; right: 30px; text-align:right; font-size:50px"""">N = 2</p>","p",0,NA,NA,0,"agree",20,20,18,20,19,"25","Male","good","Moderate Agreement","Very Strong Agreement","Strong Agreement","Very Strong Agreement","Strong Agreement","Very Strong Agreement","Strong Agreement","Strong Agreement","Very Strong Agreement","Moderate Agreement","Very Strong Agreement","Strong Agreement","Very Strong Agreement","Strong Agreement","Very Strong Agreement","Strong Agreement","Very Strong Agreement","Very Strong Disagreement"
"113","A3JLI3TU2PVNNG:3P1L2B7AD2V9EN2SQDOCWROOIZNLO7","2",7,5,2,"50","<p style=""font-size:100px""><b>p</b></p><p style=""position: absolute; top: 30px; right: 30px; text-align:right; font-size:50px"""">N = 2</p>","p",0,NA,NA,0,"agree",20,20,18,20,19,"25","Male","good","Moderate Agreement","Very Strong Agreement","Strong Agreement","Very Strong Agreement","Strong Agreement","Very Strong Agreement","Strong Agreement","Strong Agreement","Very Strong Agreement","Moderate Agreement","Very Strong Agreement","Strong Agreement","Very Strong Agreement","Strong Agreement","Very Strong Agreement","Strong Agreement","Very Strong Agreement","Very Strong Disagreement"
"114","A3JLI3TU2PVNNG:3P1L2B7AD2V9EN2SQDOCWROOIZNLO7","2",7,6,2,"50","<p style=""font-size:100px""><b>T</b></p><p style=""position: absolute; top: 30px; right: 30px; text-align:right; font-size:50px"""">N = 2</p>","T",0,NA,NA,0,"agree",20,20,18,20,19,"25","Male","good","Moderate Agreement","Very Strong Agreement","Strong Agreement","Very Strong Agreement","Strong Agreement","Very Strong Agreement","Strong Agreement","Strong Agreement","Very Strong Agreement","Moderate Agreement","Very Strong Agreement","Strong Agreement","Very Strong Agreement","Strong Agreement","Very Strong Agreement","Strong Agreement","Very Strong Agreement","Very Strong Disagreement"
"115","A3JLI3TU2PVNNG:3P1L2B7AD2V9EN2SQDOCWROOIZNLO7","2",7,7,2,"50","<p style=""font-size:100px""><b>D</b></p><p style=""position: absolute; top: 30px; right: 30px; text-align:right; font-size:50px"""">N = 2</p>","D",0,NA,NA,0,"agree",20,20,18,20,19,"25","Male","good","Moderate Agreement","Very Strong Agreement","Strong Agreement","Very Strong Agreement","Strong Agreement","Very Strong Agreement","Strong Agreement","Strong Agreement","Very Strong Agreement","Moderate Agreement","Very Strong Agreement","Strong Agreement","Very Strong Agreement","Strong Agreement","Very Strong Agreement","Strong Agreement","Very Strong Agreement","Very Strong Disagreement"
"116","A3JLI3TU2PVNNG:3P1L2B7AD2V9EN2SQDOCWROOIZNLO7","2",7,8,2,"50","<p style=""font-size:100px""><b>b</b></p><p style=""position: absolute; top: 30px; right: 30px; text-align:right; font-size:50px"""">N = 2</p>","b",0,NA,NA,0,"agree",20,20,18,20,19,"25","Male","good","Moderate Agreement","Very Strong Agreement","Strong Agreement","Very Strong Agreement","Strong Agreement","Very Strong Agreement","Strong Agreement","Strong Agreement","Very Strong Agreement","Moderate Agreement","Very Strong Agreement","Strong Agreement","Very Strong Agreement","Strong Agreement","Very Strong Agreement","Strong Agreement","Very Strong Agreement","Very Strong Disagreement"
"117","A3JLI3TU2PVNNG:3P1L2B7AD2V9EN2SQDOCWROOIZNLO7","2",7,9,2,"50","<p style=""font-size:100px""><b>T</b></p><p style=""position: absolute; top: 30px; right: 30px; text-align:right; font-size:50px"""">N = 2</p>","T",0,NA,NA,0,"agree",20,20,18,20,19,"25","Male","good","Moderate Agreement","Very Strong Agreement","Strong Agreement","Very Strong Agreement","Strong Agreement","Very Strong Agreement","Strong Agreement","Strong Agreement","Very Strong Agreement","Moderate Agreement","Very Strong Agreement","Strong Agreement","Very Strong Agreement","Strong Agreement","Very Strong Agreement","Strong Agreement","Very Strong Agreement","Very Strong Disagreement"
"118","A3JLI3TU2PVNNG:3P1L2B7AD2V9EN2SQDOCWROOIZNLO7","2",7,10,2,"50","<p style=""font-size:100px""><b>b</b></p><p style=""position: absolute; top: 30px; right: 30px; text-align:right; font-size:50px"""">N = 2</p>","b",0,NA,NA,0,"agree",20,20,18,20,19,"25","Male","good","Moderate Agreement","Very Strong Agreement","Strong Agreement","Very Strong Agreement","Strong Agreement","Very Strong Agreement","Strong Agreement","Strong Agreement","Very Strong Agreement","Moderate Agreement","Very Strong Agreement","Strong Agreement","Very Strong Agreement","Strong Agreement","Very Strong Agreement","Strong Agreement","Very Strong Agreement","Very Strong Disagreement"
"119","A3JLI3TU2PVNNG:3P1L2B7AD2V9EN2SQDOCWROOIZNLO7","2",7,11,2,"50","<p style=""font-size:100px""><b>V</b></p><p style=""position: absolute; top: 30px; right: 30px; text-align:right; font-size:50px"""">N = 2</p>","V",0,NA,NA,0,"agree",20,20,18,20,19,"25","Male","good","Moderate Agreement","Very Strong Agreement","Strong Agreement","Very Strong Agreement","Strong Agreement","Very Strong Agreement","Strong Agreement","Strong Agreement","Very Strong Agreement","Moderate Agreement","Very Strong Agreement","Strong Agreement","Very Strong Agreement","Strong Agreement","Very Strong Agreement","Strong Agreement","Very Strong Agreement","Very Strong Disagreement"
"120","A3JLI3TU2PVNNG:3P1L2B7AD2V9EN2SQDOCWROOIZNLO7","2",7,12,2,"50","<p style=""font-size:100px""><b>b</b></p><p style=""position: absolute; top: 30px; right: 30px; text-align:right; font-size:50px"""">N = 2</p>","b",0,NA,NA,0,"agree",20,20,18,20,19,"25","Male","good","Moderate Agreement","Very Strong Agreement","Strong Agreement","Very Strong Agreement","Strong Agreement","Very Strong Agreement","Strong Agreement","Strong Agreement","Very Strong Agreement","Moderate Agreement","Very Strong Agreement","Strong Agreement","Very Strong Agreement","Strong Agreement","Very Strong Agreement","Strong Agreement","Very Strong Agreement","Very Strong Disagreement"
"121","A3JLI3TU2PVNNG:3P1L2B7AD2V9EN2SQDOCWROOIZNLO7","2",8,1,1,"5","<p style=""font-size:100px""><b>v</b></p><p style=""position: absolute; top: 30px; right: 30px; text-align:right; font-size:50px"""">N = 1</p>","v",0,NA,NA,0,"agree",20,20,19,20,20,"25","Male","good","Moderate Agreement","Very Strong Agreement","Strong Agreement","Very Strong Agreement","Strong Agreement","Very Strong Agreement","Strong Agreement","Strong Agreement","Very Strong Agreement","Moderate Agreement","Very Strong Agreement","Strong Agreement","Very Strong Agreement","Strong Agreement","Very Strong Agreement","Strong Agreement","Very Strong Agreement","Very Strong Disagreement"
"122","A3JLI3TU2PVNNG:3P1L2B7AD2V9EN2SQDOCWROOIZNLO7","2",8,2,1,"5","<p style=""font-size:100px""><b>b</b></p><p style=""position: absolute; top: 30px; right: 30px; text-align:right; font-size:50px"""">N = 1</p>","b",0,NA,NA,0,"agree",20,20,19,20,20,"25","Male","good","Moderate Agreement","Very Strong Agreement","Strong Agreement","Very Strong Agreement","Strong Agreement","Very Strong Agreement","Strong Agreement","Strong Agreement","Very Strong Agreement","Moderate Agreement","Very Strong Agreement","Strong Agreement","Very Strong Agreement","Strong Agreement","Very Strong Agreement","Strong Agreement","Very Strong Agreement","Very Strong Disagreement"
"123","A3JLI3TU2PVNNG:3P1L2B7AD2V9EN2SQDOCWROOIZNLO7","2",8,3,1,"5","<p style=""font-size:100px""><b>d</b></p><p style=""position: absolute; top: 30px; right: 30px; text-align:right; font-size:50px"""">N = 1</p>","d",0,NA,NA,0,"agree",20,20,19,20,20,"25","Male","good","Moderate Agreement","Very Strong Agreement","Strong Agreement","Very Strong Agreement","Strong Agreement","Very Strong Agreement","Strong Agreement","Strong Agreement","Very Strong Agreement","Moderate Agreement","Very Strong Agreement","Strong Agreement","Very Strong Agreement","Strong Agreement","Very Strong Agreement","Strong Agreement","Very Strong Agreement","Very Strong Disagreement"
"124","A3JLI3TU2PVNNG:3P1L2B7AD2V9EN2SQDOCWROOIZNLO7","2",8,4,1,"5","<p style=""font-size:100px""><b>V</b></p><p style=""position: absolute; top: 30px; right: 30px; text-align:right; font-size:50px"""">N = 1</p>","V",0,NA,NA,0,"agree",20,20,19,20,20,"25","Male","good","Moderate Agreement","Very Strong Agreement","Strong Agreement","Very Strong Agreement","Strong Agreement","Very Strong Agreement","Strong Agreement","Strong Agreement","Very Strong Agreement","Moderate Agreement","Very Strong Agreement","Strong Agreement","Very Strong Agreement","Strong Agreement","Very Strong Agreement","Strong Agreement","Very Strong Agreement","Very Strong Disagreement"
"125","A3JLI3TU2PVNNG:3P1L2B7AD2V9EN2SQDOCWROOIZNLO7","2",8,5,1,"5","<p style=""font-size:100px""><b>g</b></p><p style=""position: absolute; top: 30px; right: 30px; text-align:right; font-size:50px"""">N = 1</p>","g",0,NA,NA,0,"agree",20,20,19,20,20,"25","Male","good","Moderate Agreement","Very Strong Agreement","Strong Agreement","Very Strong Agreement","Strong Agreement","Very Strong Agreement","Strong Agreement","Strong Agreement","Very Strong Agreement","Moderate Agreement","Very Strong Agreement","Strong Agreement","Very Strong Agreement","Strong Agreement","Very Strong Agreement","Strong Agreement","Very Strong Agreement","Very Strong Disagreement"
"126","A3JLI3TU2PVNNG:3P1L2B7AD2V9EN2SQDOCWROOIZNLO7","2",8,6,1,"5","<p style=""font-size:100px""><b>T</b></p><p style=""position: absolute; top: 30px; right: 30px; text-align:right; font-size:50px"""">N = 1</p>","T",0,NA,NA,0,"agree",20,20,19,20,20,"25","Male","good","Moderate Agreement","Very Strong Agreement","Strong Agreement","Very Strong Agreement","Strong Agreement","Very Strong Agreement","Strong Agreement","Strong Agreement","Very Strong Agreement","Moderate Agreement","Very Strong Agreement","Strong Agreement","Very Strong Agreement","Strong Agreement","Very Strong Agreement","Strong Agreement","Very Strong Agreement","Very Strong Disagreement"
"127","A3JLI3TU2PVNNG:3P1L2B7AD2V9EN2SQDOCWROOIZNLO7","2",8,7,1,"5","<p style=""font-size:100px""><b>T</b></p><p style=""position: absolute; top: 30px; right: 30px; text-align:right; font-size:50px"""">N = 1</p>","T",0,NA,NA,0,"agree",20,20,19,20,20,"25","Male","good","Moderate Agreement","Very Strong Agreement","Strong Agreement","Very Strong Agreement","Strong Agreement","Very Strong Agreement","Strong Agreement","Strong Agreement","Very Strong Agreement","Moderate Agreement","Very Strong Agreement","Strong Agreement","Very Strong Agreement","Strong Agreement","Very Strong Agreement","Strong Agreement","Very Strong Agreement","Very Strong Disagreement"
"128","A3JLI3TU2PVNNG:3P1L2B7AD2V9EN2SQDOCWROOIZNLO7","2",8,8,1,"5","<p style=""font-size:100px""><b>b</b></p><p style=""position: absolute; top: 30px; right: 30px; text-align:right; font-size:50px"""">N = 1</p>","b",0,NA,NA,0,"agree",20,20,19,20,20,"25","Male","good","Moderate Agreement","Very Strong Agreement","Strong Agreement","Very Strong Agreement","Strong Agreement","Very Strong Agreement","Strong Agreement","Strong Agreement","Very Strong Agreement","Moderate Agreement","Very Strong Agreement","Strong Agreement","Very Strong Agreement","Strong Agreement","Very Strong Agreement","Strong Agreement","Very Strong Agreement","Very Strong Disagreement"
"129","A3JLI3TU2PVNNG:3P1L2B7AD2V9EN2SQDOCWROOIZNLO7","2",8,9,1,"5","<p style=""font-size:100px""><b>b</b></p><p style=""position: absolute; top: 30px; right: 30px; text-align:right; font-size:50px"""">N = 1</p>","b",0,NA,NA,0,"agree",20,20,19,20,20,"25","Male","good","Moderate Agreement","Very Strong Agreement","Strong Agreement","Very Strong Agreement","Strong Agreement","Very Strong Agreement","Strong Agreement","Strong Agreement","Very Strong Agreement","Moderate Agreement","Very Strong Agreement","Strong Agreement","Very Strong Agreement","Strong Agreement","Very Strong Agreement","Strong Agreement","Very Strong Agreement","Very Strong Disagreement"
"130","A3JLI3TU2PVNNG:3P1L2B7AD2V9EN2SQDOCWROOIZNLO7","2",8,10,1,"5","<p style=""font-size:100px""><b>b</b></p><p style=""position: absolute; top: 30px; right: 30px; text-align:right; font-size:50px"""">N = 1</p>","b",0,NA,NA,0,"agree",20,20,19,20,20,"25","Male","good","Moderate Agreement","Very Strong Agreement","Strong Agreement","Very Strong Agreement","Strong Agreement","Very Strong Agreement","Strong Agreement","Strong Agreement","Very Strong Agreement","Moderate Agreement","Very Strong Agreement","Strong Agreement","Very Strong Agreement","Strong Agreement","Very Strong Agreement","Strong Agreement","Very Strong Agreement","Very Strong Disagreement"
"131","A3JLI3TU2PVNNG:3P1L2B7AD2V9EN2SQDOCWROOIZNLO7","2",8,11,1,"5","<p style=""font-size:100px""><b>b</b></p><p style=""position: absolute; top: 30px; right: 30px; text-align:right; font-size:50px"""">N = 1</p>","b",0,NA,NA,0,"agree",20,20,19,20,20,"25","Male","good","Moderate Agreement","Very Strong Agreement","Strong Agreement","Very Strong Agreement","Strong Agreement","Very Strong Agreement","Strong Agreement","Strong Agreement","Very Strong Agreement","Moderate Agreement","Very Strong Agreement","Strong Agreement","Very Strong Agreement","Strong Agreement","Very Strong Agreement","Strong Agreement","Very Strong Agreement","Very Strong Disagreement"
"132","A3JLI3TU2PVNNG:3P1L2B7AD2V9EN2SQDOCWROOIZNLO7","2",8,12,1,"5","<p style=""font-size:100px""><b>v</b></p><p style=""position: absolute; top: 30px; right: 30px; text-align:right; font-size:50px"""">N = 1</p>","v",0,NA,NA,0,"agree",20,20,19,20,20,"25","Male","good","Moderate Agreement","Very Strong Agreement","Strong Agreement","Very Strong Agreement","Strong Agreement","Very Strong Agreement","Strong Agreement","Strong Agreement","Very Strong Agreement","Moderate Agreement","Very Strong Agreement","Strong Agreement","Very Strong Agreement","Strong Agreement","Very Strong Agreement","Strong Agreement","Very Strong Agreement","Very Strong Disagreement"
"133","A3JLI3TU2PVNNG:3P1L2B7AD2V9EN2SQDOCWROOIZNLO7","2",9,1,2,"50","<p style=""font-size:100px""><b>b</b></p><p style=""position: absolute; top: 30px; right: 30px; text-align:right; font-size:50px"""">N = 2</p>","b",0,NA,NA,0,"agree",20,20,20,18,20,"25","Male","good","Moderate Agreement","Very Strong Agreement","Strong Agreement","Very Strong Agreement","Strong Agreement","Very Strong Agreement","Strong Agreement","Strong Agreement","Very Strong Agreement","Moderate Agreement","Very Strong Agreement","Strong Agreement","Very Strong Agreement","Strong Agreement","Very Strong Agreement","Strong Agreement","Very Strong Agreement","Very Strong Disagreement"
"134","A3JLI3TU2PVNNG:3P1L2B7AD2V9EN2SQDOCWROOIZNLO7","2",9,2,2,"50","<p style=""font-size:100px""><b>G</b></p><p style=""position: absolute; top: 30px; right: 30px; text-align:right; font-size:50px"""">N = 2</p>","G",0,NA,NA,0,"agree",20,20,20,18,20,"25","Male","good","Moderate Agreement","Very Strong Agreement","Strong Agreement","Very Strong Agreement","Strong Agreement","Very Strong Agreement","Strong Agreement","Strong Agreement","Very Strong Agreement","Moderate Agreement","Very Strong Agreement","Strong Agreement","Very Strong Agreement","Strong Agreement","Very Strong Agreement","Strong Agreement","Very Strong Agreement","Very Strong Disagreement"
"135","A3JLI3TU2PVNNG:3P1L2B7AD2V9EN2SQDOCWROOIZNLO7","2",9,3,2,"50","<p style=""font-size:100px""><b>d</b></p><p style=""position: absolute; top: 30px; right: 30px; text-align:right; font-size:50px"""">N = 2</p>","d",0,NA,NA,0,"agree",20,20,20,18,20,"25","Male","good","Moderate Agreement","Very Strong Agreement","Strong Agreement","Very Strong Agreement","Strong Agreement","Very Strong Agreement","Strong Agreement","Strong Agreement","Very Strong Agreement","Moderate Agreement","Very Strong Agreement","Strong Agreement","Very Strong Agreement","Strong Agreement","Very Strong Agreement","Strong Agreement","Very Strong Agreement","Very Strong Disagreement"
"136","A3JLI3TU2PVNNG:3P1L2B7AD2V9EN2SQDOCWROOIZNLO7","2",9,4,2,"50","<p style=""font-size:100px""><b>G</b></p><p style=""position: absolute; top: 30px; right: 30px; text-align:right; font-size:50px"""">N = 2</p>","G",0,NA,NA,0,"agree",20,20,20,18,20,"25","Male","good","Moderate Agreement","Very Strong Agreement","Strong Agreement","Very Strong Agreement","Strong Agreement","Very Strong Agreement","Strong Agreement","Strong Agreement","Very Strong Agreement","Moderate Agreement","Very Strong Agreement","Strong Agreement","Very Strong Agreement","Strong Agreement","Very Strong Agreement","Strong Agreement","Very Strong Agreement","Very Strong Disagreement"
"137","A3JLI3TU2PVNNG:3P1L2B7AD2V9EN2SQDOCWROOIZNLO7","2",9,5,2,"50","<p style=""font-size:100px""><b>t</b></p><p style=""position: absolute; top: 30px; right: 30px; text-align:right; font-size:50px"""">N = 2</p>","t",0,NA,NA,0,"agree",20,20,20,18,20,"25","Male","good","Moderate Agreement","Very Strong Agreement","Strong Agreement","Very Strong Agreement","Strong Agreement","Very Strong Agreement","Strong Agreement","Strong Agreement","Very Strong Agreement","Moderate Agreement","Very Strong Agreement","Strong Agreement","Very Strong Agreement","Strong Agreement","Very Strong Agreement","Strong Agreement","Very Strong Agreement","Very Strong Disagreement"
"138","A3JLI3TU2PVNNG:3P1L2B7AD2V9EN2SQDOCWROOIZNLO7","2",9,6,2,"50","<p style=""font-size:100px""><b>t</b></p><p style=""position: absolute; top: 30px; right: 30px; text-align:right; font-size:50px"""">N = 2</p>","t",0,NA,NA,0,"agree",20,20,20,18,20,"25","Male","good","Moderate Agreement","Very Strong Agreement","Strong Agreement","Very Strong Agreement","Strong Agreement","Very Strong Agreement","Strong Agreement","Strong Agreement","Very Strong Agreement","Moderate Agreement","Very Strong Agreement","Strong Agreement","Very Strong Agreement","Strong Agreement","Very Strong Agreement","Strong Agreement","Very Strong Agreement","Very Strong Disagreement"
"139","A3JLI3TU2PVNNG:3P1L2B7AD2V9EN2SQDOCWROOIZNLO7","2",9,7,2,"50","<p style=""font-size:100px""><b>b</b></p><p style=""position: absolute; top: 30px; right: 30px; text-align:right; font-size:50px"""">N = 2</p>","b",0,NA,NA,0,"agree",20,20,20,18,20,"25","Male","good","Moderate Agreement","Very Strong Agreement","Strong Agreement","Very Strong Agreement","Strong Agreement","Very Strong Agreement","Strong Agreement","Strong Agreement","Very Strong Agreement","Moderate Agreement","Very Strong Agreement","Strong Agreement","Very Strong Agreement","Strong Agreement","Very Strong Agreement","Strong Agreement","Very Strong Agreement","Very Strong Disagreement"
"140","A3JLI3TU2PVNNG:3P1L2B7AD2V9EN2SQDOCWROOIZNLO7","2",9,8,2,"50","<p style=""font-size:100px""><b>t</b></p><p style=""position: absolute; top: 30px; right: 30px; text-align:right; font-size:50px"""">N = 2</p>","t",0,NA,NA,0,"agree",20,20,20,18,20,"25","Male","good","Moderate Agreement","Very Strong Agreement","Strong Agreement","Very Strong Agreement","Strong Agreement","Very Strong Agreement","Strong Agreement","Strong Agreement","Very Strong Agreement","Moderate Agreement","Very Strong Agreement","Strong Agreement","Very Strong Agreement","Strong Agreement","Very Strong Agreement","Strong Agreement","Very Strong Agreement","Very Strong Disagreement"
"141","A3JLI3TU2PVNNG:3P1L2B7AD2V9EN2SQDOCWROOIZNLO7","2",9,9,2,"50","<p style=""font-size:100px""><b>b</b></p><p style=""position: absolute; top: 30px; right: 30px; text-align:right; font-size:50px"""">N = 2</p>","b",0,NA,NA,0,"agree",20,20,20,18,20,"25","Male","good","Moderate Agreement","Very Strong Agreement","Strong Agreement","Very Strong Agreement","Strong Agreement","Very Strong Agreement","Strong Agreement","Strong Agreement","Very Strong Agreement","Moderate Agreement","Very Strong Agreement","Strong Agreement","Very Strong Agreement","Strong Agreement","Very Strong Agreement","Strong Agreement","Very Strong Agreement","Very Strong Disagreement"
"142","A3JLI3TU2PVNNG:3P1L2B7AD2V9EN2SQDOCWROOIZNLO7","2",9,10,2,"50","<p style=""font-size:100px""><b>D</b></p><p style=""position: absolute; top: 30px; right: 30px; text-align:right; font-size:50px"""">N = 2</p>","D",0,NA,NA,0,"agree",20,20,20,18,20,"25","Male","good","Moderate Agreement","Very Strong Agreement","Strong Agreement","Very Strong Agreement","Strong Agreement","Very Strong Agreement","Strong Agreement","Strong Agreement","Very Strong Agreement","Moderate Agreement","Very Strong Agreement","Strong Agreement","Very Strong Agreement","Strong Agreement","Very Strong Agreement","Strong Agreement","Very Strong Agreement","Very Strong Disagreement"
"143","A3JLI3TU2PVNNG:3P1L2B7AD2V9EN2SQDOCWROOIZNLO7","2",9,11,2,"50","<p style=""font-size:100px""><b>b</b></p><p style=""position: absolute; top: 30px; right: 30px; text-align:right; font-size:50px"""">N = 2</p>","b",0,NA,NA,0,"agree",20,20,20,18,20,"25","Male","good","Moderate Agreement","Very Strong Agreement","Strong Agreement","Very Strong Agreement","Strong Agreement","Very Strong Agreement","Strong Agreement","Strong Agreement","Very Strong Agreement","Moderate Agreement","Very Strong Agreement","Strong Agreement","Very Strong Agreement","Strong Agreement","Very Strong Agreement","Strong Agreement","Very Strong Agreement","Very Strong Disagreement"
"144","A3JLI3TU2PVNNG:3P1L2B7AD2V9EN2SQDOCWROOIZNLO7","2",9,12,2,"50","<p style=""font-size:100px""><b>t</b></p><p style=""position: absolute; top: 30px; right: 30px; text-align:right; font-size:50px"""">N = 2</p>","t",0,NA,NA,0,"agree",20,20,20,18,20,"25","Male","good","Moderate Agreement","Very Strong Agreement","Strong Agreement","Very Strong Agreement","Strong Agreement","Very Strong Agreement","Strong Agreement","Strong Agreement","Very Strong Agreement","Moderate Agreement","Very Strong Agreement","Strong Agreement","Very Strong Agreement","Strong Agreement","Very Strong Agreement","Strong Agreement","Very Strong Agreement","Very Strong Disagreement"
"145","A3JLI3TU2PVNNG:3P1L2B7AD2V9EN2SQDOCWROOIZNLO7","2",10,1,3,"5","<p style=""font-size:100px""><b>P</b></p><p style=""position: absolute; top: 30px; right: 30px; text-align:right; font-size:50px"""">N = 3</p>","P",0,NA,NA,0,"agree",19,19,19,20,19,"25","Male","good","Moderate Agreement","Very Strong Agreement","Strong Agreement","Very Strong Agreement","Strong Agreement","Very Strong Agreement","Strong Agreement","Strong Agreement","Very Strong Agreement","Moderate Agreement","Very Strong Agreement","Strong Agreement","Very Strong Agreement","Strong Agreement","Very Strong Agreement","Strong Agreement","Very Strong Agreement","Very Strong Disagreement"
"146","A3JLI3TU2PVNNG:3P1L2B7AD2V9EN2SQDOCWROOIZNLO7","2",10,2,3,"5","<p style=""font-size:100px""><b>T</b></p><p style=""position: absolute; top: 30px; right: 30px; text-align:right; font-size:50px"""">N = 3</p>","T",0,NA,NA,0,"agree",19,19,19,20,19,"25","Male","good","Moderate Agreement","Very Strong Agreement","Strong Agreement","Very Strong Agreement","Strong Agreement","Very Strong Agreement","Strong Agreement","Strong Agreement","Very Strong Agreement","Moderate Agreement","Very Strong Agreement","Strong Agreement","Very Strong Agreement","Strong Agreement","Very Strong Agreement","Strong Agreement","Very Strong Agreement","Very Strong Disagreement"
"147","A3JLI3TU2PVNNG:3P1L2B7AD2V9EN2SQDOCWROOIZNLO7","2",10,3,3,"5","<p style=""font-size:100px""><b>G</b></p><p style=""position: absolute; top: 30px; right: 30px; text-align:right; font-size:50px"""">N = 3</p>","G",0,NA,NA,0,"agree",19,19,19,20,19,"25","Male","good","Moderate Agreement","Very Strong Agreement","Strong Agreement","Very Strong Agreement","Strong Agreement","Very Strong Agreement","Strong Agreement","Strong Agreement","Very Strong Agreement","Moderate Agreement","Very Strong Agreement","Strong Agreement","Very Strong Agreement","Strong Agreement","Very Strong Agreement","Strong Agreement","Very Strong Agreement","Very Strong Disagreement"
"148","A3JLI3TU2PVNNG:3P1L2B7AD2V9EN2SQDOCWROOIZNLO7","2",10,4,3,"5","<p style=""font-size:100px""><b>P</b></p><p style=""position: absolute; top: 30px; right: 30px; text-align:right; font-size:50px"""">N = 3</p>","P",0,NA,NA,0,"agree",19,19,19,20,19,"25","Male","good","Moderate Agreement","Very Strong Agreement","Strong Agreement","Very Strong Agreement","Strong Agreement","Very Strong Agreement","Strong Agreement","Strong Agreement","Very Strong Agreement","Moderate Agreement","Very Strong Agreement","Strong Agreement","Very Strong Agreement","Strong Agreement","Very Strong Agreement","Strong Agreement","Very Strong Agreement","Very Strong Disagreement"
"149","A3JLI3TU2PVNNG:3P1L2B7AD2V9EN2SQDOCWROOIZNLO7","2",10,5,3,"5","<p style=""font-size:100px""><b>b</b></p><p style=""position: absolute; top: 30px; right: 30px; text-align:right; font-size:50px"""">N = 3</p>","b",0,NA,NA,0,"agree",19,19,19,20,19,"25","Male","good","Moderate Agreement","Very Strong Agreement","Strong Agreement","Very Strong Agreement","Strong Agreement","Very Strong Agreement","Strong Agreement","Strong Agreement","Very Strong Agreement","Moderate Agreement","Very Strong Agreement","Strong Agreement","Very Strong Agreement","Strong Agreement","Very Strong Agreement","Strong Agreement","Very Strong Agreement","Very Strong Disagreement"
