"","subject","run","block","trial","N","reward","stimulus","cue","isTarget","key_press","rt","acc","debrief","performance","frustration","demand","temporal","effort","age","gender","comments","nfc1","nfc2","nfc3","nfc4","nfc5","nfc6","nfc7","nfc8","nfc9","nfc10","nfc11","nfc12","nfc13","nfc14","nfc15","nfc16","nfc17","nfc18"
"1","A2G320C9X2VDHH:3EJJQNKU9SBAP4BIRKQIYU0MC4ZHR4","practice",1,1,1,"NA","<p style=""font-size:100px""><b>T</b></p><p style=""position: absolute; top: 30px; right: 30px; text-align:right; font-size:50px"""">N = 1</p>","T",0,73,1004,1,"agree",15,7,13,14,10,"35","Female","everything is clear to me and good task","Neither Agreement nor Disagreement","Strong Agreement","Strong Disagreement","Slight Agreement","Slight Disagreement","Slight Agreement","Slight Agreement","Slight Disagreement","Slight Agreement","Strong Agreement","Very Strong Agreement","Strong Disagreement","Strong Agreement","Moderate Agreement","Slight Disagreement","Slight Disagreement","Strong Disagreement","Slight Disagreement"
"2","A2G320C9X2VDHH:3EJJQNKU9SBAP4BIRKQIYU0MC4ZHR4","practice",1,2,1,"NA","<p style=""font-size:100px""><b>V</b></p><p style=""position: absolute; top: 30px; right: 30px; text-align:right; font-size:50px"""">N = 1</p>","V",0,73,1096,1,"agree",15,7,13,14,10,"35","Female","everything is clear to me and good task","Neither Agreement nor Disagreement","Strong Agreement","Strong Disagreement","Slight Agreement","Slight Disagreement","Slight Agreement","Slight Agreement","Slight Disagreement","Slight Agreement","Strong Agreement","Very Strong Agreement","Strong Disagreement","Strong Agreement","Moderate Agreement","Slight Disagreement","Slight Disagreement","Strong Disagreement","Slight Disagreement"
"3","A2G320C9X2VDHH:3EJJQNKU9SBAP4BIRKQIYU0MC4ZHR4","practice",1,3,1,"NA","<p style=""font-size:100px""><b>V</b></p><p style=""position: absolute; top: 30px; right: 30px; text-align:right; font-size:50px"""">N = 1</p>","V",1,73,841,0,"agree",15,7,13,14,10,"35","Female","everything is clear to me and good task","Neither Agreement nor Disagreement","Strong Agreement","Strong Disagreement","Slight Agreement","Slight Disagreement","Slight Agreement","Slight Agreement","Slight Disagreement","Slight Agreement","Strong Agreement","Very Strong Agreement","Strong Disagreement","Strong Agreement","Moderate Agreement","Slight Disagreement","Slight Disagreement","Strong Disagreement","Slight Disagreement"
"4","A2G320C9X2VDHH:3EJJQNKU9SBAP4BIRKQIYU0MC4ZHR4","practice",1,4,1,"NA","<p style=""font-size:100px""><b>P</b></p><p style=""position: absolute; top: 30px; right: 30px; text-align:right; font-size:50px"""">N = 1</p>","P",0,73,1450,1,"agree",15,7,13,14,10,"35","Female","everything is clear to me and good task","Neither Agreement nor Disagreement","Strong Agreement","Strong Disagreement","Slight Agreement","Slight Disagreement","Slight Agreement","Slight Agreement","Slight Disagreement","Slight Agreement","Strong Agreement","Very Strong Agreement","Strong Disagreement","Strong Agreement","Moderate Agreement","Slight Disagreement","Slight Disagreement","Strong Disagreement","Slight Disagreement"
"5","A2G320C9X2VDHH:3EJJQNKU9SBAP4BIRKQIYU0MC4ZHR4","practice",1,5,1,"NA","<p style=""font-size:100px""><b>P</b></p><p style=""position: absolute; top: 30px; right: 30px; text-align:right; font-size:50px"""">N = 1</p>","P",1,69,1088,1,"agree",15,7,13,14,10,"35","Female","everything is clear to me and good task","Neither Agreement nor Disagreement","Strong Agreement","Strong Disagreement","Slight Agreement","Slight Disagreement","Slight Agreement","Slight Agreement","Slight Disagreement","Slight Agreement","Strong Agreement","Very Strong Agreement","Strong Disagreement","Strong Agreement","Moderate Agreement","Slight Disagreement","Slight Disagreement","Strong Disagreement","Slight Disagreement"
"6","A2G320C9X2VDHH:3EJJQNKU9SBAP4BIRKQIYU0MC4ZHR4","practice",1,6,1,"NA","<p style=""font-size:100px""><b>P</b></p><p style=""position: absolute; top: 30px; right: 30px; text-align:right; font-size:50px"""">N = 1</p>","P",1,69,948,1,"agree",15,7,13,14,10,"35","Female","everything is clear to me and good task","Neither Agreement nor Disagreement","Strong Agreement","Strong Disagreement","Slight Agreement","Slight Disagreement","Slight Agreement","Slight Agreement","Slight Disagreement","Slight Agreement","Strong Agreement","Very Strong Agreement","Strong Disagreement","Strong Agreement","Moderate Agreement","Slight Disagreement","Slight Disagreement","Strong Disagreement","Slight Disagreement"
"7","A2G320C9X2VDHH:3EJJQNKU9SBAP4BIRKQIYU0MC4ZHR4","practice",1,7,1,"NA","<p style=""font-size:100px""><b>P</b></p><p style=""position: absolute; top: 30px; right: 30px; text-align:right; font-size:50px"""">N = 1</p>","P",1,69,833,1,"agree",15,7,13,14,10,"35","Female","everything is clear to me and good task","Neither Agreement nor Disagreement","Strong Agreement","Strong Disagreement","Slight Agreement","Slight Disagreement","Slight Agreement","Slight Agreement","Slight Disagreement","Slight Agreement","Strong Agreement","Very Strong Agreement","Strong Disagreement","Strong Agreement","Moderate Agreement","Slight Disagreement","Slight Disagreement","Strong Disagreement","Slight Disagreement"
"8","A2G320C9X2VDHH:3EJJQNKU9SBAP4BIRKQIYU0MC4ZHR4","practice",1,8,1,"NA","<p style=""font-size:100px""><b>g</b></p><p style=""position: absolute; top: 30px; right: 30px; text-align:right; font-size:50px"""">N = 1</p>","g",0,73,1032,1,"agree",15,7,13,14,10,"35","Female","everything is clear to me and good task","Neither Agreement nor Disagreement","Strong Agreement","Strong Disagreement","Slight Agreement","Slight Disagreement","Slight Agreement","Slight Agreement","Slight Disagreement","Slight Agreement","Strong Agreement","Very Strong Agreement","Strong Disagreement","Strong Agreement","Moderate Agreement","Slight Disagreement","Slight Disagreement","Strong Disagreement","Slight Disagreement"
"9","A2G320C9X2VDHH:3EJJQNKU9SBAP4BIRKQIYU0MC4ZHR4","practice",1,9,1,"NA","<p style=""font-size:100px""><b>b</b></p><p style=""position: absolute; top: 30px; right: 30px; text-align:right; font-size:50px"""">N = 1</p>","b",0,73,1358,1,"agree",15,7,13,14,10,"35","Female","everything is clear to me and good task","Neither Agreement nor Disagreement","Strong Agreement","Strong Disagreement","Slight Agreement","Slight Disagreement","Slight Agreement","Slight Agreement","Slight Disagreement","Slight Agreement","Strong Agreement","Very Strong Agreement","Strong Disagreement","Strong Agreement","Moderate Agreement","Slight Disagreement","Slight Disagreement","Strong Disagreement","Slight Disagreement"
"10","A2G320C9X2VDHH:3EJJQNKU9SBAP4BIRKQIYU0MC4ZHR4","practice",1,10,1,"NA","<p style=""font-size:100px""><b>G</b></p><p style=""position: absolute; top: 30px; right: 30px; text-align:right; font-size:50px"""">N = 1</p>","G",0,73,1477,1,"agree",15,7,13,14,10,"35","Female","everything is clear to me and good task","Neither Agreement nor Disagreement","Strong Agreement","Strong Disagreement","Slight Agreement","Slight Disagreement","Slight Agreement","Slight Agreement","Slight Disagreement","Slight Agreement","Strong Agreement","Very Strong Agreement","Strong Disagreement","Strong Agreement","Moderate Agreement","Slight Disagreement","Slight Disagreement","Strong Disagreement","Slight Disagreement"
"11","A2G320C9X2VDHH:3EJJQNKU9SBAP4BIRKQIYU0MC4ZHR4","practice",1,11,1,"NA","<p style=""font-size:100px""><b>D</b></p><p style=""position: absolute; top: 30px; right: 30px; text-align:right; font-size:50px"""">N = 1</p>","D",0,73,975,1,"agree",15,7,13,14,10,"35","Female","everything is clear to me and good task","Neither Agreement nor Disagreement","Strong Agreement","Strong Disagreement","Slight Agreement","Slight Disagreement","Slight Agreement","Slight Agreement","Slight Disagreement","Slight Agreement","Strong Agreement","Very Strong Agreement","Strong Disagreement","Strong Agreement","Moderate Agreement","Slight Disagreement","Slight Disagreement","Strong Disagreement","Slight Disagreement"
"12","A2G320C9X2VDHH:3EJJQNKU9SBAP4BIRKQIYU0MC4ZHR4","practice",1,12,1,"NA","<p style=""font-size:100px""><b>P</b></p><p style=""position: absolute; top: 30px; right: 30px; text-align:right; font-size:50px"""">N = 1</p>","P",0,69,1061,0,"agree",15,7,13,14,10,"35","Female","everything is clear to me and good task","Neither Agreement nor Disagreement","Strong Agreement","Strong Disagreement","Slight Agreement","Slight Disagreement","Slight Agreement","Slight Agreement","Slight Disagreement","Slight Agreement","Strong Agreement","Very Strong Agreement","Strong Disagreement","Strong Agreement","Moderate Agreement","Slight Disagreement","Slight Disagreement","Strong Disagreement","Slight Disagreement"
"13","A2G320C9X2VDHH:3EJJQNKU9SBAP4BIRKQIYU0MC4ZHR4","practice",2,1,2,"NA","<p style=""font-size:100px""><b>V</b></p><p style=""position: absolute; top: 30px; right: 30px; text-align:right; font-size:50px"""">N = 2</p>","V",0,73,1139,1,"agree",15,7,13,14,10,"35","Female","everything is clear to me and good task","Neither Agreement nor Disagreement","Strong Agreement","Strong Disagreement","Slight Agreement","Slight Disagreement","Slight Agreement","Slight Agreement","Slight Disagreement","Slight Agreement","Strong Agreement","Very Strong Agreement","Strong Disagreement","Strong Agreement","Moderate Agreement","Slight Disagreement","Slight Disagreement","Strong Disagreement","Slight Disagreement"
"14","A2G320C9X2VDHH:3EJJQNKU9SBAP4BIRKQIYU0MC4ZHR4","practice",2,2,2,"NA","<p style=""font-size:100px""><b>t</b></p><p style=""position: absolute; top: 30px; right: 30px; text-align:right; font-size:50px"""">N = 2</p>","t",0,73,1024,1,"agree",15,7,13,14,10,"35","Female","everything is clear to me and good task","Neither Agreement nor Disagreement","Strong Agreement","Strong Disagreement","Slight Agreement","Slight Disagreement","Slight Agreement","Slight Agreement","Slight Disagreement","Slight Agreement","Strong Agreement","Very Strong Agreement","Strong Disagreement","Strong Agreement","Moderate Agreement","Slight Disagreement","Slight Disagreement","Strong Disagreement","Slight Disagreement"
"15","A2G320C9X2VDHH:3EJJQNKU9SBAP4BIRKQIYU0MC4ZHR4","practice",2,3,2,"NA","<p style=""font-size:100px""><b>b</b></p><p style=""position: absolute; top: 30px; right: 30px; text-align:right; font-size:50px"""">N = 2</p>","b",0,73,885,1,"agree",15,7,13,14,10,"35","Female","everything is clear to me and good task","Neither Agreement nor Disagreement","Strong Agreement","Strong Disagreement","Slight Agreement","Slight Disagreement","Slight Agreement","Slight Agreement","Slight Disagreement","Slight Agreement","Strong Agreement","Very Strong Agreement","Strong Disagreement","Strong Agreement","Moderate Agreement","Slight Disagreement","Slight Disagreement","Strong Disagreement","Slight Disagreement"
"16","A2G320C9X2VDHH:3EJJQNKU9SBAP4BIRKQIYU0MC4ZHR4","practice",2,4,2,"NA","<p style=""font-size:100px""><b>p</b></p><p style=""position: absolute; top: 30px; right: 30px; text-align:right; font-size:50px"""">N = 2</p>","p",0,73,1157,1,"agree",15,7,13,14,10,"35","Female","everything is clear to me and good task","Neither Agreement nor Disagreement","Strong Agreement","Strong Disagreement","Slight Agreement","Slight Disagreement","Slight Agreement","Slight Agreement","Slight Disagreement","Slight Agreement","Strong Agreement","Very Strong Agreement","Strong Disagreement","Strong Agreement","Moderate Agreement","Slight Disagreement","Slight Disagreement","Strong Disagreement","Slight Disagreement"
"17","A2G320C9X2VDHH:3EJJQNKU9SBAP4BIRKQIYU0MC4ZHR4","practice",2,5,2,"NA","<p style=""font-size:100px""><b>b</b></p><p style=""position: absolute; top: 30px; right: 30px; text-align:right; font-size:50px"""">N = 2</p>","b",1,69,1523,1,"agree",15,7,13,14,10,"35","Female","everything is clear to me and good task","Neither Agreement nor Disagreement","Strong Agreement","Strong Disagreement","Slight Agreement","Slight Disagreement","Slight Agreement","Slight Agreement","Slight Disagreement","Slight Agreement","Strong Agreement","Very Strong Agreement","Strong Disagreement","Strong Agreement","Moderate Agreement","Slight Disagreement","Slight Disagreement","Strong Disagreement","Slight Disagreement"
"18","A2G320C9X2VDHH:3EJJQNKU9SBAP4BIRKQIYU0MC4ZHR4","practice",2,6,2,"NA","<p style=""font-size:100px""><b>g</b></p><p style=""position: absolute; top: 30px; right: 30px; text-align:right; font-size:50px"""">N = 2</p>","g",0,73,1177,1,"agree",15,7,13,14,10,"35","Female","everything is clear to me and good task","Neither Agreement nor Disagreement","Strong Agreement","Strong Disagreement","Slight Agreement","Slight Disagreement","Slight Agreement","Slight Agreement","Slight Disagreement","Slight Agreement","Strong Agreement","Very Strong Agreement","Strong Disagreement","Strong Agreement","Moderate Agreement","Slight Disagreement","Slight Disagreement","Strong Disagreement","Slight Disagreement"
"19","A2G320C9X2VDHH:3EJJQNKU9SBAP4BIRKQIYU0MC4ZHR4","practice",2,7,2,"NA","<p style=""font-size:100px""><b>t</b></p><p style=""position: absolute; top: 30px; right: 30px; text-align:right; font-size:50px"""">N = 2</p>","t",0,73,1672,1,"agree",15,7,13,14,10,"35","Female","everything is clear to me and good task","Neither Agreement nor Disagreement","Strong Agreement","Strong Disagreement","Slight Agreement","Slight Disagreement","Slight Agreement","Slight Agreement","Slight Disagreement","Slight Agreement","Strong Agreement","Very Strong Agreement","Strong Disagreement","Strong Agreement","Moderate Agreement","Slight Disagreement","Slight Disagreement","Strong Disagreement","Slight Disagreement"
"20","A2G320C9X2VDHH:3EJJQNKU9SBAP4BIRKQIYU0MC4ZHR4","practice",2,8,2,"NA","<p style=""font-size:100px""><b>g</b></p><p style=""position: absolute; top: 30px; right: 30px; text-align:right; font-size:50px"""">N = 2</p>","g",1,69,1502,1,"agree",15,7,13,14,10,"35","Female","everything is clear to me and good task","Neither Agreement nor Disagreement","Strong Agreement","Strong Disagreement","Slight Agreement","Slight Disagreement","Slight Agreement","Slight Agreement","Slight Disagreement","Slight Agreement","Strong Agreement","Very Strong Agreement","Strong Disagreement","Strong Agreement","Moderate Agreement","Slight Disagreement","Slight Disagreement","Strong Disagreement","Slight Disagreement"
"21","A2G320C9X2VDHH:3EJJQNKU9SBAP4BIRKQIYU0MC4ZHR4","practice",2,9,2,"NA","<p style=""font-size:100px""><b>t</b></p><p style=""position: absolute; top: 30px; right: 30px; text-align:right; font-size:50px"""">N = 2</p>","t",1,69,1478,1,"agree",15,7,13,14,10,"35","Female","everything is clear to me and good task","Neither Agreement nor Disagreement","Strong Agreement","Strong Disagreement","Slight Agreement","Slight Disagreement","Slight Agreement","Slight Agreement","Slight Disagreement","Slight Agreement","Strong Agreement","Very Strong Agreement","Strong Disagreement","Strong Agreement","Moderate Agreement","Slight Disagreement","Slight Disagreement","Strong Disagreement","Slight Disagreement"
"22","A2G320C9X2VDHH:3EJJQNKU9SBAP4BIRKQIYU0MC4ZHR4","practice",2,10,2,"NA","<p style=""font-size:100px""><b>g</b></p><p style=""position: absolute; top: 30px; right: 30px; text-align:right; font-size:50px"""">N = 2</p>","g",1,69,1688,1,"agree",15,7,13,14,10,"35","Female","everything is clear to me and good task","Neither Agreement nor Disagreement","Strong Agreement","Strong Disagreement","Slight Agreement","Slight Disagreement","Slight Agreement","Slight Agreement","Slight Disagreement","Slight Agreement","Strong Agreement","Very Strong Agreement","Strong Disagreement","Strong Agreement","Moderate Agreement","Slight Disagreement","Slight Disagreement","Strong Disagreement","Slight Disagreement"
"23","A2G320C9X2VDHH:3EJJQNKU9SBAP4BIRKQIYU0MC4ZHR4","practice",2,11,2,"NA","<p style=""font-size:100px""><b>p</b></p><p style=""position: absolute; top: 30px; right: 30px; text-align:right; font-size:50px"""">N = 2</p>","p",0,73,1519,1,"agree",15,7,13,14,10,"35","Female","everything is clear to me and good task","Neither Agreement nor Disagreement","Strong Agreement","Strong Disagreement","Slight Agreement","Slight Disagreement","Slight Agreement","Slight Agreement","Slight Disagreement","Slight Agreement","Strong Agreement","Very Strong Agreement","Strong Disagreement","Strong Agreement","Moderate Agreement","Slight Disagreement","Slight Disagreement","Strong Disagreement","Slight Disagreement"
"24","A2G320C9X2VDHH:3EJJQNKU9SBAP4BIRKQIYU0MC4ZHR4","practice",2,12,2,"NA","<p style=""font-size:100px""><b>T</b></p><p style=""position: absolute; top: 30px; right: 30px; text-align:right; font-size:50px"""">N = 2</p>","T",0,73,1257,1,"agree",15,7,13,14,10,"35","Female","everything is clear to me and good task","Neither Agreement nor Disagreement","Strong Agreement","Strong Disagreement","Slight Agreement","Slight Disagreement","Slight Agreement","Slight Agreement","Slight Disagreement","Slight Agreement","Strong Agreement","Very Strong Agreement","Strong Disagreement","Strong Agreement","Moderate Agreement","Slight Disagreement","Slight Disagreement","Strong Disagreement","Slight Disagreement"
"25","A2G320C9X2VDHH:3EJJQNKU9SBAP4BIRKQIYU0MC4ZHR4","practice",3,1,3,"NA","<p style=""font-size:100px""><b>D</b></p><p style=""position: absolute; top: 30px; right: 30px; text-align:right; font-size:50px"""">N = 3</p>","D",0,73,973,1,"agree",15,7,13,14,10,"35","Female","everything is clear to me and good task","Neither Agreement nor Disagreement","Strong Agreement","Strong Disagreement","Slight Agreement","Slight Disagreement","Slight Agreement","Slight Agreement","Slight Disagreement","Slight Agreement","Strong Agreement","Very Strong Agreement","Strong Disagreement","Strong Agreement","Moderate Agreement","Slight Disagreement","Slight Disagreement","Strong Disagreement","Slight Disagreement"
"26","A2G320C9X2VDHH:3EJJQNKU9SBAP4BIRKQIYU0MC4ZHR4","practice",3,2,3,"NA","<p style=""font-size:100px""><b>t</b></p><p style=""position: absolute; top: 30px; right: 30px; text-align:right; font-size:50px"""">N = 3</p>","t",0,73,973,1,"agree",15,7,13,14,10,"35","Female","everything is clear to me and good task","Neither Agreement nor Disagreement","Strong Agreement","Strong Disagreement","Slight Agreement","Slight Disagreement","Slight Agreement","Slight Agreement","Slight Disagreement","Slight Agreement","Strong Agreement","Very Strong Agreement","Strong Disagreement","Strong Agreement","Moderate Agreement","Slight Disagreement","Slight Disagreement","Strong Disagreement","Slight Disagreement"
"27","A2G320C9X2VDHH:3EJJQNKU9SBAP4BIRKQIYU0MC4ZHR4","practice",3,3,3,"NA","<p style=""font-size:100px""><b>d</b></p><p style=""position: absolute; top: 30px; right: 30px; text-align:right; font-size:50px"""">N = 3</p>","d",0,69,1518,0,"agree",15,7,13,14,10,"35","Female","everything is clear to me and good task","Neither Agreement nor Disagreement","Strong Agreement","Strong Disagreement","Slight Agreement","Slight Disagreement","Slight Agreement","Slight Agreement","Slight Disagreement","Slight Agreement","Strong Agreement","Very Strong Agreement","Strong Disagreement","Strong Agreement","Moderate Agreement","Slight Disagreement","Slight Disagreement","Strong Disagreement","Slight Disagreement"
"28","A2G320C9X2VDHH:3EJJQNKU9SBAP4BIRKQIYU0MC4ZHR4","practice",3,4,3,"NA","<p style=""font-size:100px""><b>G</b></p><p style=""position: absolute; top: 30px; right: 30px; text-align:right; font-size:50px"""">N = 3</p>","G",0,73,1012,1,"agree",15,7,13,14,10,"35","Female","everything is clear to me and good task","Neither Agreement nor Disagreement","Strong Agreement","Strong Disagreement","Slight Agreement","Slight Disagreement","Slight Agreement","Slight Agreement","Slight Disagreement","Slight Agreement","Strong Agreement","Very Strong Agreement","Strong Disagreement","Strong Agreement","Moderate Agreement","Slight Disagreement","Slight Disagreement","Strong Disagreement","Slight Disagreement"
"29","A2G320C9X2VDHH:3EJJQNKU9SBAP4BIRKQIYU0MC4ZHR4","practice",3,5,3,"NA","<p style=""font-size:100px""><b>B</b></p><p style=""position: absolute; top: 30px; right: 30px; text-align:right; font-size:50px"""">N = 3</p>","B",0,73,1177,1,"agree",15,7,13,14,10,"35","Female","everything is clear to me and good task","Neither Agreement nor Disagreement","Strong Agreement","Strong Disagreement","Slight Agreement","Slight Disagreement","Slight Agreement","Slight Agreement","Slight Disagreement","Slight Agreement","Strong Agreement","Very Strong Agreement","Strong Disagreement","Strong Agreement","Moderate Agreement","Slight Disagreement","Slight Disagreement","Strong Disagreement","Slight Disagreement"
"30","A2G320C9X2VDHH:3EJJQNKU9SBAP4BIRKQIYU0MC4ZHR4","practice",3,6,3,"NA","<p style=""font-size:100px""><b>d</b></p><p style=""position: absolute; top: 30px; right: 30px; text-align:right; font-size:50px"""">N = 3</p>","d",1,73,1457,0,"agree",15,7,13,14,10,"35","Female","everything is clear to me and good task","Neither Agreement nor Disagreement","Strong Agreement","Strong Disagreement","Slight Agreement","Slight Disagreement","Slight Agreement","Slight Agreement","Slight Disagreement","Slight Agreement","Strong Agreement","Very Strong Agreement","Strong Disagreement","Strong Agreement","Moderate Agreement","Slight Disagreement","Slight Disagreement","Strong Disagreement","Slight Disagreement"
"31","A2G320C9X2VDHH:3EJJQNKU9SBAP4BIRKQIYU0MC4ZHR4","practice",3,7,3,"NA","<p style=""font-size:100px""><b>T</b></p><p style=""position: absolute; top: 30px; right: 30px; text-align:right; font-size:50px"""">N = 3</p>","T",0,73,1075,1,"agree",15,7,13,14,10,"35","Female","everything is clear to me and good task","Neither Agreement nor Disagreement","Strong Agreement","Strong Disagreement","Slight Agreement","Slight Disagreement","Slight Agreement","Slight Agreement","Slight Disagreement","Slight Agreement","Strong Agreement","Very Strong Agreement","Strong Disagreement","Strong Agreement","Moderate Agreement","Slight Disagreement","Slight Disagreement","Strong Disagreement","Slight Disagreement"
"32","A2G320C9X2VDHH:3EJJQNKU9SBAP4BIRKQIYU0MC4ZHR4","practice",3,8,3,"NA","<p style=""font-size:100px""><b>B</b></p><p style=""position: absolute; top: 30px; right: 30px; text-align:right; font-size:50px"""">N = 3</p>","B",1,73,1159,0,"agree",15,7,13,14,10,"35","Female","everything is clear to me and good task","Neither Agreement nor Disagreement","Strong Agreement","Strong Disagreement","Slight Agreement","Slight Disagreement","Slight Agreement","Slight Agreement","Slight Disagreement","Slight Agreement","Strong Agreement","Very Strong Agreement","Strong Disagreement","Strong Agreement","Moderate Agreement","Slight Disagreement","Slight Disagreement","Strong Disagreement","Slight Disagreement"
"33","A2G320C9X2VDHH:3EJJQNKU9SBAP4BIRKQIYU0MC4ZHR4","practice",3,9,3,"NA","<p style=""font-size:100px""><b>d</b></p><p style=""position: absolute; top: 30px; right: 30px; text-align:right; font-size:50px"""">N = 3</p>","d",1,69,1309,1,"agree",15,7,13,14,10,"35","Female","everything is clear to me and good task","Neither Agreement nor Disagreement","Strong Agreement","Strong Disagreement","Slight Agreement","Slight Disagreement","Slight Agreement","Slight Agreement","Slight Disagreement","Slight Agreement","Strong Agreement","Very Strong Agreement","Strong Disagreement","Strong Agreement","Moderate Agreement","Slight Disagreement","Slight Disagreement","Strong Disagreement","Slight Disagreement"
"34","A2G320C9X2VDHH:3EJJQNKU9SBAP4BIRKQIYU0MC4ZHR4","practice",3,10,3,"NA","<p style=""font-size:100px""><b>V</b></p><p style=""position: absolute; top: 30px; right: 30px; text-align:right; font-size:50px"""">N = 3</p>","V",0,73,1332,1,"agree",15,7,13,14,10,"35","Female","everything is clear to me and good task","Neither Agreement nor Disagreement","Strong Agreement","Strong Disagreement","Slight Agreement","Slight Disagreement","Slight Agreement","Slight Agreement","Slight Disagreement","Slight Agreement","Strong Agreement","Very Strong Agreement","Strong Disagreement","Strong Agreement","Moderate Agreement","Slight Disagreement","Slight Disagreement","Strong Disagreement","Slight Disagreement"
"35","A2G320C9X2VDHH:3EJJQNKU9SBAP4BIRKQIYU0MC4ZHR4","practice",3,11,3,"NA","<p style=""font-size:100px""><b>B</b></p><p style=""position: absolute; top: 30px; right: 30px; text-align:right; font-size:50px"""">N = 3</p>","B",1,73,893,0,"agree",15,7,13,14,10,"35","Female","everything is clear to me and good task","Neither Agreement nor Disagreement","Strong Agreement","Strong Disagreement","Slight Agreement","Slight Disagreement","Slight Agreement","Slight Agreement","Slight Disagreement","Slight Agreement","Strong Agreement","Very Strong Agreement","Strong Disagreement","Strong Agreement","Moderate Agreement","Slight Disagreement","Slight Disagreement","Strong Disagreement","Slight Disagreement"
"36","A2G320C9X2VDHH:3EJJQNKU9SBAP4BIRKQIYU0MC4ZHR4","practice",3,12,3,"NA","<p style=""font-size:100px""><b>b</b></p><p style=""position: absolute; top: 30px; right: 30px; text-align:right; font-size:50px"""">N = 3</p>","b",0,69,1343,0,"agree",15,7,13,14,10,"35","Female","everything is clear to me and good task","Neither Agreement nor Disagreement","Strong Agreement","Strong Disagreement","Slight Agreement","Slight Disagreement","Slight Agreement","Slight Agreement","Slight Disagreement","Slight Agreement","Strong Agreement","Very Strong Agreement","Strong Disagreement","Strong Agreement","Moderate Agreement","Slight Disagreement","Slight Disagreement","Strong Disagreement","Slight Disagreement"
"37","A2G320C9X2VDHH:3EJJQNKU9SBAP4BIRKQIYU0MC4ZHR4","1",1,1,3,"50","<p style=""font-size:100px""><b>p</b></p><p style=""position: absolute; top: 30px; right: 30px; text-align:right; font-size:50px"""">N = 3</p>","p",0,NA,NA,0,"agree",15,7,13,14,10,"35","Female","everything is clear to me and good task","Neither Agreement nor Disagreement","Strong Agreement","Strong Disagreement","Slight Agreement","Slight Disagreement","Slight Agreement","Slight Agreement","Slight Disagreement","Slight Agreement","Strong Agreement","Very Strong Agreement","Strong Disagreement","Strong Agreement","Moderate Agreement","Slight Disagreement","Slight Disagreement","Strong Disagreement","Slight Disagreement"
"38","A2G320C9X2VDHH:3EJJQNKU9SBAP4BIRKQIYU0MC4ZHR4","1",1,2,3,"50","<p style=""font-size:100px""><b>b</b></p><p style=""position: absolute; top: 30px; right: 30px; text-align:right; font-size:50px"""">N = 3</p>","b",0,73,940,1,"agree",15,7,13,14,10,"35","Female","everything is clear to me and good task","Neither Agreement nor Disagreement","Strong Agreement","Strong Disagreement","Slight Agreement","Slight Disagreement","Slight Agreement","Slight Agreement","Slight Disagreement","Slight Agreement","Strong Agreement","Very Strong Agreement","Strong Disagreement","Strong Agreement","Moderate Agreement","Slight Disagreement","Slight Disagreement","Strong Disagreement","Slight Disagreement"
"39","A2G320C9X2VDHH:3EJJQNKU9SBAP4BIRKQIYU0MC4ZHR4","1",1,3,3,"50","<p style=""font-size:100px""><b>v</b></p><p style=""position: absolute; top: 30px; right: 30px; text-align:right; font-size:50px"""">N = 3</p>","v",0,73,768,1,"agree",15,7,13,14,10,"35","Female","everything is clear to me and good task","Neither Agreement nor Disagreement","Strong Agreement","Strong Disagreement","Slight Agreement","Slight Disagreement","Slight Agreement","Slight Agreement","Slight Disagreement","Slight Agreement","Strong Agreement","Very Strong Agreement","Strong Disagreement","Strong Agreement","Moderate Agreement","Slight Disagreement","Slight Disagreement","Strong Disagreement","Slight Disagreement"
"40","A2G320C9X2VDHH:3EJJQNKU9SBAP4BIRKQIYU0MC4ZHR4","1",1,4,3,"50","<p style=""font-size:100px""><b>p</b></p><p style=""position: absolute; top: 30px; right: 30px; text-align:right; font-size:50px"""">N = 3</p>","p",0,NA,NA,0,"agree",15,7,13,14,10,"35","Female","everything is clear to me and good task","Neither Agreement nor Disagreement","Strong Agreement","Strong Disagreement","Slight Agreement","Slight Disagreement","Slight Agreement","Slight Agreement","Slight Disagreement","Slight Agreement","Strong Agreement","Very Strong Agreement","Strong Disagreement","Strong Agreement","Moderate Agreement","Slight Disagreement","Slight Disagreement","Strong Disagreement","Slight Disagreement"
"41","A2G320C9X2VDHH:3EJJQNKU9SBAP4BIRKQIYU0MC4ZHR4","1",1,5,3,"50","<p style=""font-size:100px""><b>D</b></p><p style=""position: absolute; top: 30px; right: 30px; text-align:right; font-size:50px"""">N = 3</p>","D",0,NA,NA,0,"agree",15,7,13,14,10,"35","Female","everything is clear to me and good task","Neither Agreement nor Disagreement","Strong Agreement","Strong Disagreement","Slight Agreement","Slight Disagreement","Slight Agreement","Slight Agreement","Slight Disagreement","Slight Agreement","Strong Agreement","Very Strong Agreement","Strong Disagreement","Strong Agreement","Moderate Agreement","Slight Disagreement","Slight Disagreement","Strong Disagreement","Slight Disagreement"
"42","A2G320C9X2VDHH:3EJJQNKU9SBAP4BIRKQIYU0MC4ZHR4","1",1,6,3,"50","<p style=""font-size:100px""><b>p</b></p><p style=""position: absolute; top: 30px; right: 30px; text-align:right; font-size:50px"""">N = 3</p>","p",0,NA,NA,0,"agree",15,7,13,14,10,"35","Female","everything is clear to me and good task","Neither Agreement nor Disagreement","Strong Agreement","Strong Disagreement","Slight Agreement","Slight Disagreement","Slight Agreement","Slight Agreement","Slight Disagreement","Slight Agreement","Strong Agreement","Very Strong Agreement","Strong Disagreement","Strong Agreement","Moderate Agreement","Slight Disagreement","Slight Disagreement","Strong Disagreement","Slight Disagreement"
"43","A2G320C9X2VDHH:3EJJQNKU9SBAP4BIRKQIYU0MC4ZHR4","1",1,7,3,"50","<p style=""font-size:100px""><b>p</b></p><p style=""position: absolute; top: 30px; right: 30px; text-align:right; font-size:50px"""">N = 3</p>","p",0,NA,NA,0,"agree",15,7,13,14,10,"35","Female","everything is clear to me and good task","Neither Agreement nor Disagreement","Strong Agreement","Strong Disagreement","Slight Agreement","Slight Disagreement","Slight Agreement","Slight Agreement","Slight Disagreement","Slight Agreement","Strong Agreement","Very Strong Agreement","Strong Disagreement","Strong Agreement","Moderate Agreement","Slight Disagreement","Slight Disagreement","Strong Disagreement","Slight Disagreement"
"44","A2G320C9X2VDHH:3EJJQNKU9SBAP4BIRKQIYU0MC4ZHR4","1",1,8,3,"50","<p style=""font-size:100px""><b>D</b></p><p style=""position: absolute; top: 30px; right: 30px; text-align:right; font-size:50px"""">N = 3</p>","D",0,73,902,1,"agree",15,7,13,14,10,"35","Female","everything is clear to me and good task","Neither Agreement nor Disagreement","Strong Agreement","Strong Disagreement","Slight Agreement","Slight Disagreement","Slight Agreement","Slight Agreement","Slight Disagreement","Slight Agreement","Strong Agreement","Very Strong Agreement","Strong Disagreement","Strong Agreement","Moderate Agreement","Slight Disagreement","Slight Disagreement","Strong Disagreement","Slight Disagreement"
"45","A2G320C9X2VDHH:3EJJQNKU9SBAP4BIRKQIYU0MC4ZHR4","1",1,9,3,"50","<p style=""font-size:100px""><b>d</b></p><p style=""position: absolute; top: 30px; right: 30px; text-align:right; font-size:50px"""">N = 3</p>","d",0,69,947,0,"agree",15,7,13,14,10,"35","Female","everything is clear to me and good task","Neither Agreement nor Disagreement","Strong Agreement","Strong Disagreement","Slight Agreement","Slight Disagreement","Slight Agreement","Slight Agreement","Slight Disagreement","Slight Agreement","Strong Agreement","Very Strong Agreement","Strong Disagreement","Strong Agreement","Moderate Agreement","Slight Disagreement","Slight Disagreement","Strong Disagreement","Slight Disagreement"
"46","A2G320C9X2VDHH:3EJJQNKU9SBAP4BIRKQIYU0MC4ZHR4","1",1,10,3,"50","<p style=""font-size:100px""><b>v</b></p><p style=""position: absolute; top: 30px; right: 30px; text-align:right; font-size:50px"""">N = 3</p>","v",0,NA,NA,0,"agree",15,7,13,14,10,"35","Female","everything is clear to me and good task","Neither Agreement nor Disagreement","Strong Agreement","Strong Disagreement","Slight Agreement","Slight Disagreement","Slight Agreement","Slight Agreement","Slight Disagreement","Slight Agreement","Strong Agreement","Very Strong Agreement","Strong Disagreement","Strong Agreement","Moderate Agreement","Slight Disagreement","Slight Disagreement","Strong Disagreement","Slight Disagreement"
"47","A2G320C9X2VDHH:3EJJQNKU9SBAP4BIRKQIYU0MC4ZHR4","1",1,11,3,"50","<p style=""font-size:100px""><b>g</b></p><p style=""position: absolute; top: 30px; right: 30px; text-align:right; font-size:50px"""">N = 3</p>","g",0,73,126,1,"agree",15,7,13,14,10,"35","Female","everything is clear to me and good task","Neither Agreement nor Disagreement","Strong Agreement","Strong Disagreement","Slight Agreement","Slight Disagreement","Slight Agreement","Slight Agreement","Slight Disagreement","Slight Agreement","Strong Agreement","Very Strong Agreement","Strong Disagreement","Strong Agreement","Moderate Agreement","Slight Disagreement","Slight Disagreement","Strong Disagreement","Slight Disagreement"
"48","A2G320C9X2VDHH:3EJJQNKU9SBAP4BIRKQIYU0MC4ZHR4","1",1,12,3,"50","<p style=""font-size:100px""><b>d</b></p><p style=""position: absolute; top: 30px; right: 30px; text-align:right; font-size:50px"""">N = 3</p>","d",0,NA,NA,0,"agree",15,7,13,14,10,"35","Female","everything is clear to me and good task","Neither Agreement nor Disagreement","Strong Agreement","Strong Disagreement","Slight Agreement","Slight Disagreement","Slight Agreement","Slight Agreement","Slight Disagreement","Slight Agreement","Strong Agreement","Very Strong Agreement","Strong Disagreement","Strong Agreement","Moderate Agreement","Slight Disagreement","Slight Disagreement","Strong Disagreement","Slight Disagreement"
"49","A2G320C9X2VDHH:3EJJQNKU9SBAP4BIRKQIYU0MC4ZHR4","1",2,1,2,"5","<p style=""font-size:100px""><b>v</b></p><p style=""position: absolute; top: 30px; right: 30px; text-align:right; font-size:50px"""">N = 2</p>","v",0,NA,NA,0,"agree",16,5,14,13,12,"35","Female","everything is clear to me and good task","Neither Agreement nor Disagreement","Strong Agreement","Strong Disagreement","Slight Agreement","Slight Disagreement","Slight Agreement","Slight Agreement","Slight Disagreement","Slight Agreement","Strong Agreement","Very Strong Agreement","Strong Disagreement","Strong Agreement","Moderate Agreement","Slight Disagreement","Slight Disagreement","Strong Disagreement","Slight Disagreement"
"50","A2G320C9X2VDHH:3EJJQNKU9SBAP4BIRKQIYU0MC4ZHR4","1",2,2,2,"5","<p style=""font-size:100px""><b>D</b></p><p style=""position: absolute; top: 30px; right: 30px; text-align:right; font-size:50px"""">N = 2</p>","D",0,73,806,1,"agree",16,5,14,13,12,"35","Female","everything is clear to me and good task","Neither Agreement nor Disagreement","Strong Agreement","Strong Disagreement","Slight Agreement","Slight Disagreement","Slight Agreement","Slight Agreement","Slight Disagreement","Slight Agreement","Strong Agreement","Very Strong Agreement","Strong Disagreement","Strong Agreement","Moderate Agreement","Slight Disagreement","Slight Disagreement","Strong Disagreement","Slight Disagreement"
"51","A2G320C9X2VDHH:3EJJQNKU9SBAP4BIRKQIYU0MC4ZHR4","1",2,3,2,"5","<p style=""font-size:100px""><b>v</b></p><p style=""position: absolute; top: 30px; right: 30px; text-align:right; font-size:50px"""">N = 2</p>","v",0,73,847,1,"agree",16,5,14,13,12,"35","Female","everything is clear to me and good task","Neither Agreement nor Disagreement","Strong Agreement","Strong Disagreement","Slight Agreement","Slight Disagreement","Slight Agreement","Slight Agreement","Slight Disagreement","Slight Agreement","Strong Agreement","Very Strong Agreement","Strong Disagreement","Strong Agreement","Moderate Agreement","Slight Disagreement","Slight Disagreement","Strong Disagreement","Slight Disagreement"
"52","A2G320C9X2VDHH:3EJJQNKU9SBAP4BIRKQIYU0MC4ZHR4","1",2,4,2,"5","<p style=""font-size:100px""><b>D</b></p><p style=""position: absolute; top: 30px; right: 30px; text-align:right; font-size:50px"""">N = 2</p>","D",0,NA,NA,0,"agree",16,5,14,13,12,"35","Female","everything is clear to me and good task","Neither Agreement nor Disagreement","Strong Agreement","Strong Disagreement","Slight Agreement","Slight Disagreement","Slight Agreement","Slight Agreement","Slight Disagreement","Slight Agreement","Strong Agreement","Very Strong Agreement","Strong Disagreement","Strong Agreement","Moderate Agreement","Slight Disagreement","Slight Disagreement","Strong Disagreement","Slight Disagreement"
"53","A2G320C9X2VDHH:3EJJQNKU9SBAP4BIRKQIYU0MC4ZHR4","1",2,5,2,"5","<p style=""font-size:100px""><b>p</b></p><p style=""position: absolute; top: 30px; right: 30px; text-align:right; font-size:50px"""">N = 2</p>","p",0,NA,NA,0,"agree",16,5,14,13,12,"35","Female","everything is clear to me and good task","Neither Agreement nor Disagreement","Strong Agreement","Strong Disagreement","Slight Agreement","Slight Disagreement","Slight Agreement","Slight Agreement","Slight Disagreement","Slight Agreement","Strong Agreement","Very Strong Agreement","Strong Disagreement","Strong Agreement","Moderate Agreement","Slight Disagreement","Slight Disagreement","Strong Disagreement","Slight Disagreement"
"54","A2G320C9X2VDHH:3EJJQNKU9SBAP4BIRKQIYU0MC4ZHR4","1",2,6,2,"5","<p style=""font-size:100px""><b>p</b></p><p style=""position: absolute; top: 30px; right: 30px; text-align:right; font-size:50px"""">N = 2</p>","p",0,69,0,0,"agree",16,5,14,13,12,"35","Female","everything is clear to me and good task","Neither Agreement nor Disagreement","Strong Agreement","Strong Disagreement","Slight Agreement","Slight Disagreement","Slight Agreement","Slight Agreement","Slight Disagreement","Slight Agreement","Strong Agreement","Very Strong Agreement","Strong Disagreement","Strong Agreement","Moderate Agreement","Slight Disagreement","Slight Disagreement","Strong Disagreement","Slight Disagreement"
"55","A2G320C9X2VDHH:3EJJQNKU9SBAP4BIRKQIYU0MC4ZHR4","1",2,7,2,"5","<p style=""font-size:100px""><b>D</b></p><p style=""position: absolute; top: 30px; right: 30px; text-align:right; font-size:50px"""">N = 2</p>","D",0,73,768,1,"agree",16,5,14,13,12,"35","Female","everything is clear to me and good task","Neither Agreement nor Disagreement","Strong Agreement","Strong Disagreement","Slight Agreement","Slight Disagreement","Slight Agreement","Slight Agreement","Slight Disagreement","Slight Agreement","Strong Agreement","Very Strong Agreement","Strong Disagreement","Strong Agreement","Moderate Agreement","Slight Disagreement","Slight Disagreement","Strong Disagreement","Slight Disagreement"
"56","A2G320C9X2VDHH:3EJJQNKU9SBAP4BIRKQIYU0MC4ZHR4","1",2,8,2,"5","<p style=""font-size:100px""><b>V</b></p><p style=""position: absolute; top: 30px; right: 30px; text-align:right; font-size:50px"""">N = 2</p>","V",0,69,876,0,"agree",16,5,14,13,12,"35","Female","everything is clear to me and good task","Neither Agreement nor Disagreement","Strong Agreement","Strong Disagreement","Slight Agreement","Slight Disagreement","Slight Agreement","Slight Agreement","Slight Disagreement","Slight Agreement","Strong Agreement","Very Strong Agreement","Strong Disagreement","Strong Agreement","Moderate Agreement","Slight Disagreement","Slight Disagreement","Strong Disagreement","Slight Disagreement"
"57","A2G320C9X2VDHH:3EJJQNKU9SBAP4BIRKQIYU0MC4ZHR4","1",2,9,2,"5","<p style=""font-size:100px""><b>g</b></p><p style=""position: absolute; top: 30px; right: 30px; text-align:right; font-size:50px"""">N = 2</p>","g",0,NA,NA,0,"agree",16,5,14,13,12,"35","Female","everything is clear to me and good task","Neither Agreement nor Disagreement","Strong Agreement","Strong Disagreement","Slight Agreement","Slight Disagreement","Slight Agreement","Slight Agreement","Slight Disagreement","Slight Agreement","Strong Agreement","Very Strong Agreement","Strong Disagreement","Strong Agreement","Moderate Agreement","Slight Disagreement","Slight Disagreement","Strong Disagreement","Slight Disagreement"
"58","A2G320C9X2VDHH:3EJJQNKU9SBAP4BIRKQIYU0MC4ZHR4","1",2,10,2,"5","<p style=""font-size:100px""><b>V</b></p><p style=""position: absolute; top: 30px; right: 30px; text-align:right; font-size:50px"""">N = 2</p>","V",0,NA,NA,0,"agree",16,5,14,13,12,"35","Female","everything is clear to me and good task","Neither Agreement nor Disagreement","Strong Agreement","Strong Disagreement","Slight Agreement","Slight Disagreement","Slight Agreement","Slight Agreement","Slight Disagreement","Slight Agreement","Strong Agreement","Very Strong Agreement","Strong Disagreement","Strong Agreement","Moderate Agreement","Slight Disagreement","Slight Disagreement","Strong Disagreement","Slight Disagreement"
"59","A2G320C9X2VDHH:3EJJQNKU9SBAP4BIRKQIYU0MC4ZHR4","1",2,11,2,"5","<p style=""font-size:100px""><b>g</b></p><p style=""position: absolute; top: 30px; right: 30px; text-align:right; font-size:50px"""">N = 2</p>","g",0,NA,NA,0,"agree",16,5,14,13,12,"35","Female","everything is clear to me and good task","Neither Agreement nor Disagreement","Strong Agreement","Strong Disagreement","Slight Agreement","Slight Disagreement","Slight Agreement","Slight Agreement","Slight Disagreement","Slight Agreement","Strong Agreement","Very Strong Agreement","Strong Disagreement","Strong Agreement","Moderate Agreement","Slight Disagreement","Slight Disagreement","Strong Disagreement","Slight Disagreement"
"60","A2G320C9X2VDHH:3EJJQNKU9SBAP4BIRKQIYU0MC4ZHR4","1",2,12,2,"5","<p style=""font-size:100px""><b>b</b></p><p style=""position: absolute; top: 30px; right: 30px; text-align:right; font-size:50px"""">N = 2</p>","b",0,NA,NA,0,"agree",16,5,14,13,12,"35","Female","everything is clear to me and good task","Neither Agreement nor Disagreement","Strong Agreement","Strong Disagreement","Slight Agreement","Slight Disagreement","Slight Agreement","Slight Agreement","Slight Disagreement","Slight Agreement","Strong Agreement","Very Strong Agreement","Strong Disagreement","Strong Agreement","Moderate Agreement","Slight Disagreement","Slight Disagreement","Strong Disagreement","Slight Disagreement"
"61","A2G320C9X2VDHH:3EJJQNKU9SBAP4BIRKQIYU0MC4ZHR4","1",3,1,1,"5","<p style=""font-size:100px""><b>V</b></p><p style=""position: absolute; top: 30px; right: 30px; text-align:right; font-size:50px"""">N = 1</p>","V",0,73,747,1,"agree",16,6,13,12,10,"35","Female","everything is clear to me and good task","Neither Agreement nor Disagreement","Strong Agreement","Strong Disagreement","Slight Agreement","Slight Disagreement","Slight Agreement","Slight Agreement","Slight Disagreement","Slight Agreement","Strong Agreement","Very Strong Agreement","Strong Disagreement","Strong Agreement","Moderate Agreement","Slight Disagreement","Slight Disagreement","Strong Disagreement","Slight Disagreement"
"62","A2G320C9X2VDHH:3EJJQNKU9SBAP4BIRKQIYU0MC4ZHR4","1",3,2,1,"5","<p style=""font-size:100px""><b>V</b></p><p style=""position: absolute; top: 30px; right: 30px; text-align:right; font-size:50px"""">N = 1</p>","V",0,69,855,0,"agree",16,6,13,12,10,"35","Female","everything is clear to me and good task","Neither Agreement nor Disagreement","Strong Agreement","Strong Disagreement","Slight Agreement","Slight Disagreement","Slight Agreement","Slight Agreement","Slight Disagreement","Slight Agreement","Strong Agreement","Very Strong Agreement","Strong Disagreement","Strong Agreement","Moderate Agreement","Slight Disagreement","Slight Disagreement","Strong Disagreement","Slight Disagreement"
"63","A2G320C9X2VDHH:3EJJQNKU9SBAP4BIRKQIYU0MC4ZHR4","1",3,3,1,"5","<p style=""font-size:100px""><b>V</b></p><p style=""position: absolute; top: 30px; right: 30px; text-align:right; font-size:50px"""">N = 1</p>","V",0,69,867,0,"agree",16,6,13,12,10,"35","Female","everything is clear to me and good task","Neither Agreement nor Disagreement","Strong Agreement","Strong Disagreement","Slight Agreement","Slight Disagreement","Slight Agreement","Slight Agreement","Slight Disagreement","Slight Agreement","Strong Agreement","Very Strong Agreement","Strong Disagreement","Strong Agreement","Moderate Agreement","Slight Disagreement","Slight Disagreement","Strong Disagreement","Slight Disagreement"
"64","A2G320C9X2VDHH:3EJJQNKU9SBAP4BIRKQIYU0MC4ZHR4","1",3,4,1,"5","<p style=""font-size:100px""><b>V</b></p><p style=""position: absolute; top: 30px; right: 30px; text-align:right; font-size:50px"""">N = 1</p>","V",0,69,875,0,"agree",16,6,13,12,10,"35","Female","everything is clear to me and good task","Neither Agreement nor Disagreement","Strong Agreement","Strong Disagreement","Slight Agreement","Slight Disagreement","Slight Agreement","Slight Agreement","Slight Disagreement","Slight Agreement","Strong Agreement","Very Strong Agreement","Strong Disagreement","Strong Agreement","Moderate Agreement","Slight Disagreement","Slight Disagreement","Strong Disagreement","Slight Disagreement"
"65","A2G320C9X2VDHH:3EJJQNKU9SBAP4BIRKQIYU0MC4ZHR4","1",3,5,1,"5","<p style=""font-size:100px""><b>d</b></p><p style=""position: absolute; top: 30px; right: 30px; text-align:right; font-size:50px"""">N = 1</p>","d",0,73,846,1,"agree",16,6,13,12,10,"35","Female","everything is clear to me and good task","Neither Agreement nor Disagreement","Strong Agreement","Strong Disagreement","Slight Agreement","Slight Disagreement","Slight Agreement","Slight Agreement","Slight Disagreement","Slight Agreement","Strong Agreement","Very Strong Agreement","Strong Disagreement","Strong Agreement","Moderate Agreement","Slight Disagreement","Slight Disagreement","Strong Disagreement","Slight Disagreement"
"66","A2G320C9X2VDHH:3EJJQNKU9SBAP4BIRKQIYU0MC4ZHR4","1",3,6,1,"5","<p style=""font-size:100px""><b>p</b></p><p style=""position: absolute; top: 30px; right: 30px; text-align:right; font-size:50px"""">N = 1</p>","p",0,73,870,1,"agree",16,6,13,12,10,"35","Female","everything is clear to me and good task","Neither Agreement nor Disagreement","Strong Agreement","Strong Disagreement","Slight Agreement","Slight Disagreement","Slight Agreement","Slight Agreement","Slight Disagreement","Slight Agreement","Strong Agreement","Very Strong Agreement","Strong Disagreement","Strong Agreement","Moderate Agreement","Slight Disagreement","Slight Disagreement","Strong Disagreement","Slight Disagreement"
"67","A2G320C9X2VDHH:3EJJQNKU9SBAP4BIRKQIYU0MC4ZHR4","1",3,7,1,"5","<p style=""font-size:100px""><b>d</b></p><p style=""position: absolute; top: 30px; right: 30px; text-align:right; font-size:50px"""">N = 1</p>","d",0,73,836,1,"agree",16,6,13,12,10,"35","Female","everything is clear to me and good task","Neither Agreement nor Disagreement","Strong Agreement","Strong Disagreement","Slight Agreement","Slight Disagreement","Slight Agreement","Slight Agreement","Slight Disagreement","Slight Agreement","Strong Agreement","Very Strong Agreement","Strong Disagreement","Strong Agreement","Moderate Agreement","Slight Disagreement","Slight Disagreement","Strong Disagreement","Slight Disagreement"
"68","A2G320C9X2VDHH:3EJJQNKU9SBAP4BIRKQIYU0MC4ZHR4","1",3,8,1,"5","<p style=""font-size:100px""><b>V</b></p><p style=""position: absolute; top: 30px; right: 30px; text-align:right; font-size:50px"""">N = 1</p>","V",0,69,915,0,"agree",16,6,13,12,10,"35","Female","everything is clear to me and good task","Neither Agreement nor Disagreement","Strong Agreement","Strong Disagreement","Slight Agreement","Slight Disagreement","Slight Agreement","Slight Agreement","Slight Disagreement","Slight Agreement","Strong Agreement","Very Strong Agreement","Strong Disagreement","Strong Agreement","Moderate Agreement","Slight Disagreement","Slight Disagreement","Strong Disagreement","Slight Disagreement"
"69","A2G320C9X2VDHH:3EJJQNKU9SBAP4BIRKQIYU0MC4ZHR4","1",3,9,1,"5","<p style=""font-size:100px""><b>p</b></p><p style=""position: absolute; top: 30px; right: 30px; text-align:right; font-size:50px"""">N = 1</p>","p",0,NA,NA,0,"agree",16,6,13,12,10,"35","Female","everything is clear to me and good task","Neither Agreement nor Disagreement","Strong Agreement","Strong Disagreement","Slight Agreement","Slight Disagreement","Slight Agreement","Slight Agreement","Slight Disagreement","Slight Agreement","Strong Agreement","Very Strong Agreement","Strong Disagreement","Strong Agreement","Moderate Agreement","Slight Disagreement","Slight Disagreement","Strong Disagreement","Slight Disagreement"
"70","A2G320C9X2VDHH:3EJJQNKU9SBAP4BIRKQIYU0MC4ZHR4","1",3,10,1,"5","<p style=""font-size:100px""><b>G</b></p><p style=""position: absolute; top: 30px; right: 30px; text-align:right; font-size:50px"""">N = 1</p>","G",0,NA,NA,0,"agree",16,6,13,12,10,"35","Female","everything is clear to me and good task","Neither Agreement nor Disagreement","Strong Agreement","Strong Disagreement","Slight Agreement","Slight Disagreement","Slight Agreement","Slight Agreement","Slight Disagreement","Slight Agreement","Strong Agreement","Very Strong Agreement","Strong Disagreement","Strong Agreement","Moderate Agreement","Slight Disagreement","Slight Disagreement","Strong Disagreement","Slight Disagreement"
"71","A2G320C9X2VDHH:3EJJQNKU9SBAP4BIRKQIYU0MC4ZHR4","1",3,11,1,"5","<p style=""font-size:100px""><b>v</b></p><p style=""position: absolute; top: 30px; right: 30px; text-align:right; font-size:50px"""">N = 1</p>","v",0,NA,NA,0,"agree",16,6,13,12,10,"35","Female","everything is clear to me and good task","Neither Agreement nor Disagreement","Strong Agreement","Strong Disagreement","Slight Agreement","Slight Disagreement","Slight Agreement","Slight Agreement","Slight Disagreement","Slight Agreement","Strong Agreement","Very Strong Agreement","Strong Disagreement","Strong Agreement","Moderate Agreement","Slight Disagreement","Slight Disagreement","Strong Disagreement","Slight Disagreement"
"72","A2G320C9X2VDHH:3EJJQNKU9SBAP4BIRKQIYU0MC4ZHR4","1",3,12,1,"5","<p style=""font-size:100px""><b>v</b></p><p style=""position: absolute; top: 30px; right: 30px; text-align:right; font-size:50px"""">N = 1</p>","v",0,69,937,0,"agree",16,6,13,12,10,"35","Female","everything is clear to me and good task","Neither Agreement nor Disagreement","Strong Agreement","Strong Disagreement","Slight Agreement","Slight Disagreement","Slight Agreement","Slight Agreement","Slight Disagreement","Slight Agreement","Strong Agreement","Very Strong Agreement","Strong Disagreement","Strong Agreement","Moderate Agreement","Slight Disagreement","Slight Disagreement","Strong Disagreement","Slight Disagreement"
"73","A2G320C9X2VDHH:3EJJQNKU9SBAP4BIRKQIYU0MC4ZHR4","1",4,1,3,"50","<p style=""font-size:100px""><b>p</b></p><p style=""position: absolute; top: 30px; right: 30px; text-align:right; font-size:50px"""">N = 3</p>","p",0,73,955,1,"agree",16,4,14,13,14,"35","Female","everything is clear to me and good task","Neither Agreement nor Disagreement","Strong Agreement","Strong Disagreement","Slight Agreement","Slight Disagreement","Slight Agreement","Slight Agreement","Slight Disagreement","Slight Agreement","Strong Agreement","Very Strong Agreement","Strong Disagreement","Strong Agreement","Moderate Agreement","Slight Disagreement","Slight Disagreement","Strong Disagreement","Slight Disagreement"
"74","A2G320C9X2VDHH:3EJJQNKU9SBAP4BIRKQIYU0MC4ZHR4","1",4,2,3,"50","<p style=""font-size:100px""><b>t</b></p><p style=""position: absolute; top: 30px; right: 30px; text-align:right; font-size:50px"""">N = 3</p>","t",0,73,995,1,"agree",16,4,14,13,14,"35","Female","everything is clear to me and good task","Neither Agreement nor Disagreement","Strong Agreement","Strong Disagreement","Slight Agreement","Slight Disagreement","Slight Agreement","Slight Agreement","Slight Disagreement","Slight Agreement","Strong Agreement","Very Strong Agreement","Strong Disagreement","Strong Agreement","Moderate Agreement","Slight Disagreement","Slight Disagreement","Strong Disagreement","Slight Disagreement"
"75","A2G320C9X2VDHH:3EJJQNKU9SBAP4BIRKQIYU0MC4ZHR4","1",4,3,3,"50","<p style=""font-size:100px""><b>D</b></p><p style=""position: absolute; top: 30px; right: 30px; text-align:right; font-size:50px"""">N = 3</p>","D",0,73,889,1,"agree",16,4,14,13,14,"35","Female","everything is clear to me and good task","Neither Agreement nor Disagreement","Strong Agreement","Strong Disagreement","Slight Agreement","Slight Disagreement","Slight Agreement","Slight Agreement","Slight Disagreement","Slight Agreement","Strong Agreement","Very Strong Agreement","Strong Disagreement","Strong Agreement","Moderate Agreement","Slight Disagreement","Slight Disagreement","Strong Disagreement","Slight Disagreement"
"76","A2G320C9X2VDHH:3EJJQNKU9SBAP4BIRKQIYU0MC4ZHR4","1",4,4,3,"50","<p style=""font-size:100px""><b>g</b></p><p style=""position: absolute; top: 30px; right: 30px; text-align:right; font-size:50px"""">N = 3</p>","g",0,NA,NA,0,"agree",16,4,14,13,14,"35","Female","everything is clear to me and good task","Neither Agreement nor Disagreement","Strong Agreement","Strong Disagreement","Slight Agreement","Slight Disagreement","Slight Agreement","Slight Agreement","Slight Disagreement","Slight Agreement","Strong Agreement","Very Strong Agreement","Strong Disagreement","Strong Agreement","Moderate Agreement","Slight Disagreement","Slight Disagreement","Strong Disagreement","Slight Disagreement"
"77","A2G320C9X2VDHH:3EJJQNKU9SBAP4BIRKQIYU0MC4ZHR4","1",4,5,3,"50","<p style=""font-size:100px""><b>d</b></p><p style=""position: absolute; top: 30px; right: 30px; text-align:right; font-size:50px"""">N = 3</p>","d",0,NA,NA,0,"agree",16,4,14,13,14,"35","Female","everything is clear to me and good task","Neither Agreement nor Disagreement","Strong Agreement","Strong Disagreement","Slight Agreement","Slight Disagreement","Slight Agreement","Slight Agreement","Slight Disagreement","Slight Agreement","Strong Agreement","Very Strong Agreement","Strong Disagreement","Strong Agreement","Moderate Agreement","Slight Disagreement","Slight Disagreement","Strong Disagreement","Slight Disagreement"
"78","A2G320C9X2VDHH:3EJJQNKU9SBAP4BIRKQIYU0MC4ZHR4","1",4,6,3,"50","<p style=""font-size:100px""><b>D</b></p><p style=""position: absolute; top: 30px; right: 30px; text-align:right; font-size:50px"""">N = 3</p>","D",0,69,944,0,"agree",16,4,14,13,14,"35","Female","everything is clear to me and good task","Neither Agreement nor Disagreement","Strong Agreement","Strong Disagreement","Slight Agreement","Slight Disagreement","Slight Agreement","Slight Agreement","Slight Disagreement","Slight Agreement","Strong Agreement","Very Strong Agreement","Strong Disagreement","Strong Agreement","Moderate Agreement","Slight Disagreement","Slight Disagreement","Strong Disagreement","Slight Disagreement"
"79","A2G320C9X2VDHH:3EJJQNKU9SBAP4BIRKQIYU0MC4ZHR4","1",4,7,3,"50","<p style=""font-size:100px""><b>D</b></p><p style=""position: absolute; top: 30px; right: 30px; text-align:right; font-size:50px"""">N = 3</p>","D",0,69,767,0,"agree",16,4,14,13,14,"35","Female","everything is clear to me and good task","Neither Agreement nor Disagreement","Strong Agreement","Strong Disagreement","Slight Agreement","Slight Disagreement","Slight Agreement","Slight Agreement","Slight Disagreement","Slight Agreement","Strong Agreement","Very Strong Agreement","Strong Disagreement","Strong Agreement","Moderate Agreement","Slight Disagreement","Slight Disagreement","Strong Disagreement","Slight Disagreement"
"80","A2G320C9X2VDHH:3EJJQNKU9SBAP4BIRKQIYU0MC4ZHR4","1",4,8,3,"50","<p style=""font-size:100px""><b>d</b></p><p style=""position: absolute; top: 30px; right: 30px; text-align:right; font-size:50px"""">N = 3</p>","d",0,69,714,0,"agree",16,4,14,13,14,"35","Female","everything is clear to me and good task","Neither Agreement nor Disagreement","Strong Agreement","Strong Disagreement","Slight Agreement","Slight Disagreement","Slight Agreement","Slight Agreement","Slight Disagreement","Slight Agreement","Strong Agreement","Very Strong Agreement","Strong Disagreement","Strong Agreement","Moderate Agreement","Slight Disagreement","Slight Disagreement","Strong Disagreement","Slight Disagreement"
"81","A2G320C9X2VDHH:3EJJQNKU9SBAP4BIRKQIYU0MC4ZHR4","1",4,9,3,"50","<p style=""font-size:100px""><b>G</b></p><p style=""position: absolute; top: 30px; right: 30px; text-align:right; font-size:50px"""">N = 3</p>","G",0,NA,NA,0,"agree",16,4,14,13,14,"35","Female","everything is clear to me and good task","Neither Agreement nor Disagreement","Strong Agreement","Strong Disagreement","Slight Agreement","Slight Disagreement","Slight Agreement","Slight Agreement","Slight Disagreement","Slight Agreement","Strong Agreement","Very Strong Agreement","Strong Disagreement","Strong Agreement","Moderate Agreement","Slight Disagreement","Slight Disagreement","Strong Disagreement","Slight Disagreement"
"82","A2G320C9X2VDHH:3EJJQNKU9SBAP4BIRKQIYU0MC4ZHR4","1",4,10,3,"50","<p style=""font-size:100px""><b>D</b></p><p style=""position: absolute; top: 30px; right: 30px; text-align:right; font-size:50px"""">N = 3</p>","D",0,69,968,0,"agree",16,4,14,13,14,"35","Female","everything is clear to me and good task","Neither Agreement nor Disagreement","Strong Agreement","Strong Disagreement","Slight Agreement","Slight Disagreement","Slight Agreement","Slight Agreement","Slight Disagreement","Slight Agreement","Strong Agreement","Very Strong Agreement","Strong Disagreement","Strong Agreement","Moderate Agreement","Slight Disagreement","Slight Disagreement","Strong Disagreement","Slight Disagreement"
"83","A2G320C9X2VDHH:3EJJQNKU9SBAP4BIRKQIYU0MC4ZHR4","1",4,11,3,"50","<p style=""font-size:100px""><b>P</b></p><p style=""position: absolute; top: 30px; right: 30px; text-align:right; font-size:50px"""">N = 3</p>","P",0,NA,NA,0,"agree",16,4,14,13,14,"35","Female","everything is clear to me and good task","Neither Agreement nor Disagreement","Strong Agreement","Strong Disagreement","Slight Agreement","Slight Disagreement","Slight Agreement","Slight Agreement","Slight Disagreement","Slight Agreement","Strong Agreement","Very Strong Agreement","Strong Disagreement","Strong Agreement","Moderate Agreement","Slight Disagreement","Slight Disagreement","Strong Disagreement","Slight Disagreement"
"84","A2G320C9X2VDHH:3EJJQNKU9SBAP4BIRKQIYU0MC4ZHR4","1",4,12,3,"50","<p style=""font-size:100px""><b>G</b></p><p style=""position: absolute; top: 30px; right: 30px; text-align:right; font-size:50px"""">N = 3</p>","G",0,69,993,0,"agree",16,4,14,13,14,"35","Female","everything is clear to me and good task","Neither Agreement nor Disagreement","Strong Agreement","Strong Disagreement","Slight Agreement","Slight Disagreement","Slight Agreement","Slight Agreement","Slight Disagreement","Slight Agreement","Strong Agreement","Very Strong Agreement","Strong Disagreement","Strong Agreement","Moderate Agreement","Slight Disagreement","Slight Disagreement","Strong Disagreement","Slight Disagreement"
"85","A2G320C9X2VDHH:3EJJQNKU9SBAP4BIRKQIYU0MC4ZHR4","1",5,1,1,"50","<p style=""font-size:100px""><b>G</b></p><p style=""position: absolute; top: 30px; right: 30px; text-align:right; font-size:50px"""">N = 1</p>","G",0,NA,NA,0,"agree",17,5,14,12,10,"35","Female","everything is clear to me and good task","Neither Agreement nor Disagreement","Strong Agreement","Strong Disagreement","Slight Agreement","Slight Disagreement","Slight Agreement","Slight Agreement","Slight Disagreement","Slight Agreement","Strong Agreement","Very Strong Agreement","Strong Disagreement","Strong Agreement","Moderate Agreement","Slight Disagreement","Slight Disagreement","Strong Disagreement","Slight Disagreement"
"86","A2G320C9X2VDHH:3EJJQNKU9SBAP4BIRKQIYU0MC4ZHR4","1",5,2,1,"50","<p style=""font-size:100px""><b>G</b></p><p style=""position: absolute; top: 30px; right: 30px; text-align:right; font-size:50px"""">N = 1</p>","G",0,NA,NA,0,"agree",17,5,14,12,10,"35","Female","everything is clear to me and good task","Neither Agreement nor Disagreement","Strong Agreement","Strong Disagreement","Slight Agreement","Slight Disagreement","Slight Agreement","Slight Agreement","Slight Disagreement","Slight Agreement","Strong Agreement","Very Strong Agreement","Strong Disagreement","Strong Agreement","Moderate Agreement","Slight Disagreement","Slight Disagreement","Strong Disagreement","Slight Disagreement"
"87","A2G320C9X2VDHH:3EJJQNKU9SBAP4BIRKQIYU0MC4ZHR4","1",5,3,1,"50","<p style=""font-size:100px""><b>P</b></p><p style=""position: absolute; top: 30px; right: 30px; text-align:right; font-size:50px"""">N = 1</p>","P",0,NA,NA,0,"agree",17,5,14,12,10,"35","Female","everything is clear to me and good task","Neither Agreement nor Disagreement","Strong Agreement","Strong Disagreement","Slight Agreement","Slight Disagreement","Slight Agreement","Slight Agreement","Slight Disagreement","Slight Agreement","Strong Agreement","Very Strong Agreement","Strong Disagreement","Strong Agreement","Moderate Agreement","Slight Disagreement","Slight Disagreement","Strong Disagreement","Slight Disagreement"
"88","A2G320C9X2VDHH:3EJJQNKU9SBAP4BIRKQIYU0MC4ZHR4","1",5,4,1,"50","<p style=""font-size:100px""><b>v</b></p><p style=""position: absolute; top: 30px; right: 30px; text-align:right; font-size:50px"""">N = 1</p>","v",0,73,860,1,"agree",17,5,14,12,10,"35","Female","everything is clear to me and good task","Neither Agreement nor Disagreement","Strong Agreement","Strong Disagreement","Slight Agreement","Slight Disagreement","Slight Agreement","Slight Agreement","Slight Disagreement","Slight Agreement","Strong Agreement","Very Strong Agreement","Strong Disagreement","Strong Agreement","Moderate Agreement","Slight Disagreement","Slight Disagreement","Strong Disagreement","Slight Disagreement"
"89","A2G320C9X2VDHH:3EJJQNKU9SBAP4BIRKQIYU0MC4ZHR4","1",5,5,1,"50","<p style=""font-size:100px""><b>P</b></p><p style=""position: absolute; top: 30px; right: 30px; text-align:right; font-size:50px"""">N = 1</p>","P",0,69,761,0,"agree",17,5,14,12,10,"35","Female","everything is clear to me and good task","Neither Agreement nor Disagreement","Strong Agreement","Strong Disagreement","Slight Agreement","Slight Disagreement","Slight Agreement","Slight Agreement","Slight Disagreement","Slight Agreement","Strong Agreement","Very Strong Agreement","Strong Disagreement","Strong Agreement","Moderate Agreement","Slight Disagreement","Slight Disagreement","Strong Disagreement","Slight Disagreement"
"90","A2G320C9X2VDHH:3EJJQNKU9SBAP4BIRKQIYU0MC4ZHR4","1",5,6,1,"50","<p style=""font-size:100px""><b>v</b></p><p style=""position: absolute; top: 30px; right: 30px; text-align:right; font-size:50px"""">N = 1</p>","v",0,NA,NA,0,"agree",17,5,14,12,10,"35","Female","everything is clear to me and good task","Neither Agreement nor Disagreement","Strong Agreement","Strong Disagreement","Slight Agreement","Slight Disagreement","Slight Agreement","Slight Agreement","Slight Disagreement","Slight Agreement","Strong Agreement","Very Strong Agreement","Strong Disagreement","Strong Agreement","Moderate Agreement","Slight Disagreement","Slight Disagreement","Strong Disagreement","Slight Disagreement"
"91","A2G320C9X2VDHH:3EJJQNKU9SBAP4BIRKQIYU0MC4ZHR4","1",5,7,1,"50","<p style=""font-size:100px""><b>b</b></p><p style=""position: absolute; top: 30px; right: 30px; text-align:right; font-size:50px"""">N = 1</p>","b",0,NA,NA,0,"agree",17,5,14,12,10,"35","Female","everything is clear to me and good task","Neither Agreement nor Disagreement","Strong Agreement","Strong Disagreement","Slight Agreement","Slight Disagreement","Slight Agreement","Slight Agreement","Slight Disagreement","Slight Agreement","Strong Agreement","Very Strong Agreement","Strong Disagreement","Strong Agreement","Moderate Agreement","Slight Disagreement","Slight Disagreement","Strong Disagreement","Slight Disagreement"
"92","A2G320C9X2VDHH:3EJJQNKU9SBAP4BIRKQIYU0MC4ZHR4","1",5,8,1,"50","<p style=""font-size:100px""><b>T</b></p><p style=""position: absolute; top: 30px; right: 30px; text-align:right; font-size:50px"""">N = 1</p>","T",0,NA,NA,0,"agree",17,5,14,12,10,"35","Female","everything is clear to me and good task","Neither Agreement nor Disagreement","Strong Agreement","Strong Disagreement","Slight Agreement","Slight Disagreement","Slight Agreement","Slight Agreement","Slight Disagreement","Slight Agreement","Strong Agreement","Very Strong Agreement","Strong Disagreement","Strong Agreement","Moderate Agreement","Slight Disagreement","Slight Disagreement","Strong Disagreement","Slight Disagreement"
"93","A2G320C9X2VDHH:3EJJQNKU9SBAP4BIRKQIYU0MC4ZHR4","1",5,9,1,"50","<p style=""font-size:100px""><b>T</b></p><p style=""position: absolute; top: 30px; right: 30px; text-align:right; font-size:50px"""">N = 1</p>","T",0,NA,NA,0,"agree",17,5,14,12,10,"35","Female","everything is clear to me and good task","Neither Agreement nor Disagreement","Strong Agreement","Strong Disagreement","Slight Agreement","Slight Disagreement","Slight Agreement","Slight Agreement","Slight Disagreement","Slight Agreement","Strong Agreement","Very Strong Agreement","Strong Disagreement","Strong Agreement","Moderate Agreement","Slight Disagreement","Slight Disagreement","Strong Disagreement","Slight Disagreement"
"94","A2G320C9X2VDHH:3EJJQNKU9SBAP4BIRKQIYU0MC4ZHR4","1",5,10,1,"50","<p style=""font-size:100px""><b>T</b></p><p style=""position: absolute; top: 30px; right: 30px; text-align:right; font-size:50px"""">N = 1</p>","T",0,69,895,0,"agree",17,5,14,12,10,"35","Female","everything is clear to me and good task","Neither Agreement nor Disagreement","Strong Agreement","Strong Disagreement","Slight Agreement","Slight Disagreement","Slight Agreement","Slight Agreement","Slight Disagreement","Slight Agreement","Strong Agreement","Very Strong Agreement","Strong Disagreement","Strong Agreement","Moderate Agreement","Slight Disagreement","Slight Disagreement","Strong Disagreement","Slight Disagreement"
"95","A2G320C9X2VDHH:3EJJQNKU9SBAP4BIRKQIYU0MC4ZHR4","1",5,11,1,"50","<p style=""font-size:100px""><b>T</b></p><p style=""position: absolute; top: 30px; right: 30px; text-align:right; font-size:50px"""">N = 1</p>","T",0,69,783,0,"agree",17,5,14,12,10,"35","Female","everything is clear to me and good task","Neither Agreement nor Disagreement","Strong Agreement","Strong Disagreement","Slight Agreement","Slight Disagreement","Slight Agreement","Slight Agreement","Slight Disagreement","Slight Agreement","Strong Agreement","Very Strong Agreement","Strong Disagreement","Strong Agreement","Moderate Agreement","Slight Disagreement","Slight Disagreement","Strong Disagreement","Slight Disagreement"
"96","A2G320C9X2VDHH:3EJJQNKU9SBAP4BIRKQIYU0MC4ZHR4","1",5,12,1,"50","<p style=""font-size:100px""><b>p</b></p><p style=""position: absolute; top: 30px; right: 30px; text-align:right; font-size:50px"""">N = 1</p>","p",0,73,916,1,"agree",17,5,14,12,10,"35","Female","everything is clear to me and good task","Neither Agreement nor Disagreement","Strong Agreement","Strong Disagreement","Slight Agreement","Slight Disagreement","Slight Agreement","Slight Agreement","Slight Disagreement","Slight Agreement","Strong Agreement","Very Strong Agreement","Strong Disagreement","Strong Agreement","Moderate Agreement","Slight Disagreement","Slight Disagreement","Strong Disagreement","Slight Disagreement"
"97","A2G320C9X2VDHH:3EJJQNKU9SBAP4BIRKQIYU0MC4ZHR4","1",6,1,1,"5","<p style=""font-size:100px""><b>D</b></p><p style=""position: absolute; top: 30px; right: 30px; text-align:right; font-size:50px"""">N = 1</p>","D",0,73,990,1,"agree",16,4,13,13,10,"35","Female","everything is clear to me and good task","Neither Agreement nor Disagreement","Strong Agreement","Strong Disagreement","Slight Agreement","Slight Disagreement","Slight Agreement","Slight Agreement","Slight Disagreement","Slight Agreement","Strong Agreement","Very Strong Agreement","Strong Disagreement","Strong Agreement","Moderate Agreement","Slight Disagreement","Slight Disagreement","Strong Disagreement","Slight Disagreement"
"98","A2G320C9X2VDHH:3EJJQNKU9SBAP4BIRKQIYU0MC4ZHR4","1",6,2,1,"5","<p style=""font-size:100px""><b>p</b></p><p style=""position: absolute; top: 30px; right: 30px; text-align:right; font-size:50px"""">N = 1</p>","p",0,73,989,1,"agree",16,4,13,13,10,"35","Female","everything is clear to me and good task","Neither Agreement nor Disagreement","Strong Agreement","Strong Disagreement","Slight Agreement","Slight Disagreement","Slight Agreement","Slight Agreement","Slight Disagreement","Slight Agreement","Strong Agreement","Very Strong Agreement","Strong Disagreement","Strong Agreement","Moderate Agreement","Slight Disagreement","Slight Disagreement","Strong Disagreement","Slight Disagreement"
"99","A2G320C9X2VDHH:3EJJQNKU9SBAP4BIRKQIYU0MC4ZHR4","1",6,3,1,"5","<p style=""font-size:100px""><b>p</b></p><p style=""position: absolute; top: 30px; right: 30px; text-align:right; font-size:50px"""">N = 1</p>","p",0,69,819,0,"agree",16,4,13,13,10,"35","Female","everything is clear to me and good task","Neither Agreement nor Disagreement","Strong Agreement","Strong Disagreement","Slight Agreement","Slight Disagreement","Slight Agreement","Slight Agreement","Slight Disagreement","Slight Agreement","Strong Agreement","Very Strong Agreement","Strong Disagreement","Strong Agreement","Moderate Agreement","Slight Disagreement","Slight Disagreement","Strong Disagreement","Slight Disagreement"
"100","A2G320C9X2VDHH:3EJJQNKU9SBAP4BIRKQIYU0MC4ZHR4","1",6,4,1,"5","<p style=""font-size:100px""><b>d</b></p><p style=""position: absolute; top: 30px; right: 30px; text-align:right; font-size:50px"""">N = 1</p>","d",0,NA,NA,0,"agree",16,4,13,13,10,"35","Female","everything is clear to me and good task","Neither Agreement nor Disagreement","Strong Agreement","Strong Disagreement","Slight Agreement","Slight Disagreement","Slight Agreement","Slight Agreement","Slight Disagreement","Slight Agreement","Strong Agreement","Very Strong Agreement","Strong Disagreement","Strong Agreement","Moderate Agreement","Slight Disagreement","Slight Disagreement","Strong Disagreement","Slight Disagreement"
"101","A2G320C9X2VDHH:3EJJQNKU9SBAP4BIRKQIYU0MC4ZHR4","1",6,5,1,"5","<p style=""font-size:100px""><b>d</b></p><p style=""position: absolute; top: 30px; right: 30px; text-align:right; font-size:50px"""">N = 1</p>","d",0,69,904,0,"agree",16,4,13,13,10,"35","Female","everything is clear to me and good task","Neither Agreement nor Disagreement","Strong Agreement","Strong Disagreement","Slight Agreement","Slight Disagreement","Slight Agreement","Slight Agreement","Slight Disagreement","Slight Agreement","Strong Agreement","Very Strong Agreement","Strong Disagreement","Strong Agreement","Moderate Agreement","Slight Disagreement","Slight Disagreement","Strong Disagreement","Slight Disagreement"
"102","A2G320C9X2VDHH:3EJJQNKU9SBAP4BIRKQIYU0MC4ZHR4","1",6,6,1,"5","<p style=""font-size:100px""><b>b</b></p><p style=""position: absolute; top: 30px; right: 30px; text-align:right; font-size:50px"""">N = 1</p>","b",0,73,864,1,"agree",16,4,13,13,10,"35","Female","everything is clear to me and good task","Neither Agreement nor Disagreement","Strong Agreement","Strong Disagreement","Slight Agreement","Slight Disagreement","Slight Agreement","Slight Agreement","Slight Disagreement","Slight Agreement","Strong Agreement","Very Strong Agreement","Strong Disagreement","Strong Agreement","Moderate Agreement","Slight Disagreement","Slight Disagreement","Strong Disagreement","Slight Disagreement"
"103","A2G320C9X2VDHH:3EJJQNKU9SBAP4BIRKQIYU0MC4ZHR4","1",6,7,1,"5","<p style=""font-size:100px""><b>d</b></p><p style=""position: absolute; top: 30px; right: 30px; text-align:right; font-size:50px"""">N = 1</p>","d",0,69,804,0,"agree",16,4,13,13,10,"35","Female","everything is clear to me and good task","Neither Agreement nor Disagreement","Strong Agreement","Strong Disagreement","Slight Agreement","Slight Disagreement","Slight Agreement","Slight Agreement","Slight Disagreement","Slight Agreement","Strong Agreement","Very Strong Agreement","Strong Disagreement","Strong Agreement","Moderate Agreement","Slight Disagreement","Slight Disagreement","Strong Disagreement","Slight Disagreement"
"104","A2G320C9X2VDHH:3EJJQNKU9SBAP4BIRKQIYU0MC4ZHR4","1",6,8,1,"5","<p style=""font-size:100px""><b>B</b></p><p style=""position: absolute; top: 30px; right: 30px; text-align:right; font-size:50px"""">N = 1</p>","B",0,NA,NA,0,"agree",16,4,13,13,10,"35","Female","everything is clear to me and good task","Neither Agreement nor Disagreement","Strong Agreement","Strong Disagreement","Slight Agreement","Slight Disagreement","Slight Agreement","Slight Agreement","Slight Disagreement","Slight Agreement","Strong Agreement","Very Strong Agreement","Strong Disagreement","Strong Agreement","Moderate Agreement","Slight Disagreement","Slight Disagreement","Strong Disagreement","Slight Disagreement"
"105","A2G320C9X2VDHH:3EJJQNKU9SBAP4BIRKQIYU0MC4ZHR4","1",6,9,1,"5","<p style=""font-size:100px""><b>G</b></p><p style=""position: absolute; top: 30px; right: 30px; text-align:right; font-size:50px"""">N = 1</p>","G",0,NA,NA,0,"agree",16,4,13,13,10,"35","Female","everything is clear to me and good task","Neither Agreement nor Disagreement","Strong Agreement","Strong Disagreement","Slight Agreement","Slight Disagreement","Slight Agreement","Slight Agreement","Slight Disagreement","Slight Agreement","Strong Agreement","Very Strong Agreement","Strong Disagreement","Strong Agreement","Moderate Agreement","Slight Disagreement","Slight Disagreement","Strong Disagreement","Slight Disagreement"
"106","A2G320C9X2VDHH:3EJJQNKU9SBAP4BIRKQIYU0MC4ZHR4","1",6,10,1,"5","<p style=""font-size:100px""><b>V</b></p><p style=""position: absolute; top: 30px; right: 30px; text-align:right; font-size:50px"""">N = 1</p>","V",0,73,870,1,"agree",16,4,13,13,10,"35","Female","everything is clear to me and good task","Neither Agreement nor Disagreement","Strong Agreement","Strong Disagreement","Slight Agreement","Slight Disagreement","Slight Agreement","Slight Agreement","Slight Disagreement","Slight Agreement","Strong Agreement","Very Strong Agreement","Strong Disagreement","Strong Agreement","Moderate Agreement","Slight Disagreement","Slight Disagreement","Strong Disagreement","Slight Disagreement"
"107","A2G320C9X2VDHH:3EJJQNKU9SBAP4BIRKQIYU0MC4ZHR4","1",6,11,1,"5","<p style=""font-size:100px""><b>V</b></p><p style=""position: absolute; top: 30px; right: 30px; text-align:right; font-size:50px"""">N = 1</p>","V",0,NA,NA,0,"agree",16,4,13,13,10,"35","Female","everything is clear to me and good task","Neither Agreement nor Disagreement","Strong Agreement","Strong Disagreement","Slight Agreement","Slight Disagreement","Slight Agreement","Slight Agreement","Slight Disagreement","Slight Agreement","Strong Agreement","Very Strong Agreement","Strong Disagreement","Strong Agreement","Moderate Agreement","Slight Disagreement","Slight Disagreement","Strong Disagreement","Slight Disagreement"
"108","A2G320C9X2VDHH:3EJJQNKU9SBAP4BIRKQIYU0MC4ZHR4","1",6,12,1,"5","<p style=""font-size:100px""><b>V</b></p><p style=""position: absolute; top: 30px; right: 30px; text-align:right; font-size:50px"""">N = 1</p>","V",0,NA,NA,0,"agree",16,4,13,13,10,"35","Female","everything is clear to me and good task","Neither Agreement nor Disagreement","Strong Agreement","Strong Disagreement","Slight Agreement","Slight Disagreement","Slight Agreement","Slight Agreement","Slight Disagreement","Slight Agreement","Strong Agreement","Very Strong Agreement","Strong Disagreement","Strong Agreement","Moderate Agreement","Slight Disagreement","Slight Disagreement","Strong Disagreement","Slight Disagreement"
"109","A2G320C9X2VDHH:3EJJQNKU9SBAP4BIRKQIYU0MC4ZHR4","2",7,1,2,"50","<p style=""font-size:100px""><b>D</b></p><p style=""position: absolute; top: 30px; right: 30px; text-align:right; font-size:50px"""">N = 2</p>","D",0,73,682,1,"agree",17,6,16,12,10,"35","Female","everything is clear to me and good task","Neither Agreement nor Disagreement","Strong Agreement","Strong Disagreement","Slight Agreement","Slight Disagreement","Slight Agreement","Slight Agreement","Slight Disagreement","Slight Agreement","Strong Agreement","Very Strong Agreement","Strong Disagreement","Strong Agreement","Moderate Agreement","Slight Disagreement","Slight Disagreement","Strong Disagreement","Slight Disagreement"
"110","A2G320C9X2VDHH:3EJJQNKU9SBAP4BIRKQIYU0MC4ZHR4","2",7,2,2,"50","<p style=""font-size:100px""><b>t</b></p><p style=""position: absolute; top: 30px; right: 30px; text-align:right; font-size:50px"""">N = 2</p>","t",0,73,748,1,"agree",17,6,16,12,10,"35","Female","everything is clear to me and good task","Neither Agreement nor Disagreement","Strong Agreement","Strong Disagreement","Slight Agreement","Slight Disagreement","Slight Agreement","Slight Agreement","Slight Disagreement","Slight Agreement","Strong Agreement","Very Strong Agreement","Strong Disagreement","Strong Agreement","Moderate Agreement","Slight Disagreement","Slight Disagreement","Strong Disagreement","Slight Disagreement"
"111","A2G320C9X2VDHH:3EJJQNKU9SBAP4BIRKQIYU0MC4ZHR4","2",7,3,2,"50","<p style=""font-size:100px""><b>D</b></p><p style=""position: absolute; top: 30px; right: 30px; text-align:right; font-size:50px"""">N = 2</p>","D",0,69,838,0,"agree",17,6,16,12,10,"35","Female","everything is clear to me and good task","Neither Agreement nor Disagreement","Strong Agreement","Strong Disagreement","Slight Agreement","Slight Disagreement","Slight Agreement","Slight Agreement","Slight Disagreement","Slight Agreement","Strong Agreement","Very Strong Agreement","Strong Disagreement","Strong Agreement","Moderate Agreement","Slight Disagreement","Slight Disagreement","Strong Disagreement","Slight Disagreement"
"112","A2G320C9X2VDHH:3EJJQNKU9SBAP4BIRKQIYU0MC4ZHR4","2",7,4,2,"50","<p style=""font-size:100px""><b>D</b></p><p style=""position: absolute; top: 30px; right: 30px; text-align:right; font-size:50px"""">N = 2</p>","D",0,69,864,0,"agree",17,6,16,12,10,"35","Female","everything is clear to me and good task","Neither Agreement nor Disagreement","Strong Agreement","Strong Disagreement","Slight Agreement","Slight Disagreement","Slight Agreement","Slight Agreement","Slight Disagreement","Slight Agreement","Strong Agreement","Very Strong Agreement","Strong Disagreement","Strong Agreement","Moderate Agreement","Slight Disagreement","Slight Disagreement","Strong Disagreement","Slight Disagreement"
"113","A2G320C9X2VDHH:3EJJQNKU9SBAP4BIRKQIYU0MC4ZHR4","2",7,5,2,"50","<p style=""font-size:100px""><b>D</b></p><p style=""position: absolute; top: 30px; right: 30px; text-align:right; font-size:50px"""">N = 2</p>","D",0,69,777,0,"agree",17,6,16,12,10,"35","Female","everything is clear to me and good task","Neither Agreement nor Disagreement","Strong Agreement","Strong Disagreement","Slight Agreement","Slight Disagreement","Slight Agreement","Slight Agreement","Slight Disagreement","Slight Agreement","Strong Agreement","Very Strong Agreement","Strong Disagreement","Strong Agreement","Moderate Agreement","Slight Disagreement","Slight Disagreement","Strong Disagreement","Slight Disagreement"
"114","A2G320C9X2VDHH:3EJJQNKU9SBAP4BIRKQIYU0MC4ZHR4","2",7,6,2,"50","<p style=""font-size:100px""><b>T</b></p><p style=""position: absolute; top: 30px; right: 30px; text-align:right; font-size:50px"""">N = 2</p>","T",0,73,808,1,"agree",17,6,16,12,10,"35","Female","everything is clear to me and good task","Neither Agreement nor Disagreement","Strong Agreement","Strong Disagreement","Slight Agreement","Slight Disagreement","Slight Agreement","Slight Agreement","Slight Disagreement","Slight Agreement","Strong Agreement","Very Strong Agreement","Strong Disagreement","Strong Agreement","Moderate Agreement","Slight Disagreement","Slight Disagreement","Strong Disagreement","Slight Disagreement"
"115","A2G320C9X2VDHH:3EJJQNKU9SBAP4BIRKQIYU0MC4ZHR4","2",7,7,2,"50","<p style=""font-size:100px""><b>B</b></p><p style=""position: absolute; top: 30px; right: 30px; text-align:right; font-size:50px"""">N = 2</p>","B",0,NA,NA,0,"agree",17,6,16,12,10,"35","Female","everything is clear to me and good task","Neither Agreement nor Disagreement","Strong Agreement","Strong Disagreement","Slight Agreement","Slight Disagreement","Slight Agreement","Slight Agreement","Slight Disagreement","Slight Agreement","Strong Agreement","Very Strong Agreement","Strong Disagreement","Strong Agreement","Moderate Agreement","Slight Disagreement","Slight Disagreement","Strong Disagreement","Slight Disagreement"
"116","A2G320C9X2VDHH:3EJJQNKU9SBAP4BIRKQIYU0MC4ZHR4","2",7,8,2,"50","<p style=""font-size:100px""><b>B</b></p><p style=""position: absolute; top: 30px; right: 30px; text-align:right; font-size:50px"""">N = 2</p>","B",0,NA,NA,0,"agree",17,6,16,12,10,"35","Female","everything is clear to me and good task","Neither Agreement nor Disagreement","Strong Agreement","Strong Disagreement","Slight Agreement","Slight Disagreement","Slight Agreement","Slight Agreement","Slight Disagreement","Slight Agreement","Strong Agreement","Very Strong Agreement","Strong Disagreement","Strong Agreement","Moderate Agreement","Slight Disagreement","Slight Disagreement","Strong Disagreement","Slight Disagreement"
"117","A2G320C9X2VDHH:3EJJQNKU9SBAP4BIRKQIYU0MC4ZHR4","2",7,9,2,"50","<p style=""font-size:100px""><b>B</b></p><p style=""position: absolute; top: 30px; right: 30px; text-align:right; font-size:50px"""">N = 2</p>","B",0,73,816,1,"agree",17,6,16,12,10,"35","Female","everything is clear to me and good task","Neither Agreement nor Disagreement","Strong Agreement","Strong Disagreement","Slight Agreement","Slight Disagreement","Slight Agreement","Slight Agreement","Slight Disagreement","Slight Agreement","Strong Agreement","Very Strong Agreement","Strong Disagreement","Strong Agreement","Moderate Agreement","Slight Disagreement","Slight Disagreement","Strong Disagreement","Slight Disagreement"
"118","A2G320C9X2VDHH:3EJJQNKU9SBAP4BIRKQIYU0MC4ZHR4","2",7,10,2,"50","<p style=""font-size:100px""><b>p</b></p><p style=""position: absolute; top: 30px; right: 30px; text-align:right; font-size:50px"""">N = 2</p>","p",0,69,831,0,"agree",17,6,16,12,10,"35","Female","everything is clear to me and good task","Neither Agreement nor Disagreement","Strong Agreement","Strong Disagreement","Slight Agreement","Slight Disagreement","Slight Agreement","Slight Agreement","Slight Disagreement","Slight Agreement","Strong Agreement","Very Strong Agreement","Strong Disagreement","Strong Agreement","Moderate Agreement","Slight Disagreement","Slight Disagreement","Strong Disagreement","Slight Disagreement"
"119","A2G320C9X2VDHH:3EJJQNKU9SBAP4BIRKQIYU0MC4ZHR4","2",7,11,2,"50","<p style=""font-size:100px""><b>B</b></p><p style=""position: absolute; top: 30px; right: 30px; text-align:right; font-size:50px"""">N = 2</p>","B",0,NA,NA,0,"agree",17,6,16,12,10,"35","Female","everything is clear to me and good task","Neither Agreement nor Disagreement","Strong Agreement","Strong Disagreement","Slight Agreement","Slight Disagreement","Slight Agreement","Slight Agreement","Slight Disagreement","Slight Agreement","Strong Agreement","Very Strong Agreement","Strong Disagreement","Strong Agreement","Moderate Agreement","Slight Disagreement","Slight Disagreement","Strong Disagreement","Slight Disagreement"
"120","A2G320C9X2VDHH:3EJJQNKU9SBAP4BIRKQIYU0MC4ZHR4","2",7,12,2,"50","<p style=""font-size:100px""><b>b</b></p><p style=""position: absolute; top: 30px; right: 30px; text-align:right; font-size:50px"""">N = 2</p>","b",0,NA,NA,0,"agree",17,6,16,12,10,"35","Female","everything is clear to me and good task","Neither Agreement nor Disagreement","Strong Agreement","Strong Disagreement","Slight Agreement","Slight Disagreement","Slight Agreement","Slight Agreement","Slight Disagreement","Slight Agreement","Strong Agreement","Very Strong Agreement","Strong Disagreement","Strong Agreement","Moderate Agreement","Slight Disagreement","Slight Disagreement","Strong Disagreement","Slight Disagreement"
"121","A2G320C9X2VDHH:3EJJQNKU9SBAP4BIRKQIYU0MC4ZHR4","2",8,1,2,"50","<p style=""font-size:100px""><b>g</b></p><p style=""position: absolute; top: 30px; right: 30px; text-align:right; font-size:50px"""">N = 2</p>","g",0,73,786,1,"agree",16,5,14,12,13,"35","Female","everything is clear to me and good task","Neither Agreement nor Disagreement","Strong Agreement","Strong Disagreement","Slight Agreement","Slight Disagreement","Slight Agreement","Slight Agreement","Slight Disagreement","Slight Agreement","Strong Agreement","Very Strong Agreement","Strong Disagreement","Strong Agreement","Moderate Agreement","Slight Disagreement","Slight Disagreement","Strong Disagreement","Slight Disagreement"
"122","A2G320C9X2VDHH:3EJJQNKU9SBAP4BIRKQIYU0MC4ZHR4","2",8,2,2,"50","<p style=""font-size:100px""><b>B</b></p><p style=""position: absolute; top: 30px; right: 30px; text-align:right; font-size:50px"""">N = 2</p>","B",0,73,870,1,"agree",16,5,14,12,13,"35","Female","everything is clear to me and good task","Neither Agreement nor Disagreement","Strong Agreement","Strong Disagreement","Slight Agreement","Slight Disagreement","Slight Agreement","Slight Agreement","Slight Disagreement","Slight Agreement","Strong Agreement","Very Strong Agreement","Strong Disagreement","Strong Agreement","Moderate Agreement","Slight Disagreement","Slight Disagreement","Strong Disagreement","Slight Disagreement"
"123","A2G320C9X2VDHH:3EJJQNKU9SBAP4BIRKQIYU0MC4ZHR4","2",8,3,2,"50","<p style=""font-size:100px""><b>p</b></p><p style=""position: absolute; top: 30px; right: 30px; text-align:right; font-size:50px"""">N = 2</p>","p",0,73,991,1,"agree",16,5,14,12,13,"35","Female","everything is clear to me and good task","Neither Agreement nor Disagreement","Strong Agreement","Strong Disagreement","Slight Agreement","Slight Disagreement","Slight Agreement","Slight Agreement","Slight Disagreement","Slight Agreement","Strong Agreement","Very Strong Agreement","Strong Disagreement","Strong Agreement","Moderate Agreement","Slight Disagreement","Slight Disagreement","Strong Disagreement","Slight Disagreement"
"124","A2G320C9X2VDHH:3EJJQNKU9SBAP4BIRKQIYU0MC4ZHR4","2",8,4,2,"50","<p style=""font-size:100px""><b>B</b></p><p style=""position: absolute; top: 30px; right: 30px; text-align:right; font-size:50px"""">N = 2</p>","B",0,NA,NA,0,"agree",16,5,14,12,13,"35","Female","everything is clear to me and good task","Neither Agreement nor Disagreement","Strong Agreement","Strong Disagreement","Slight Agreement","Slight Disagreement","Slight Agreement","Slight Agreement","Slight Disagreement","Slight Agreement","Strong Agreement","Very Strong Agreement","Strong Disagreement","Strong Agreement","Moderate Agreement","Slight Disagreement","Slight Disagreement","Strong Disagreement","Slight Disagreement"
"125","A2G320C9X2VDHH:3EJJQNKU9SBAP4BIRKQIYU0MC4ZHR4","2",8,5,2,"50","<p style=""font-size:100px""><b>p</b></p><p style=""position: absolute; top: 30px; right: 30px; text-align:right; font-size:50px"""">N = 2</p>","p",0,NA,NA,0,"agree",16,5,14,12,13,"35","Female","everything is clear to me and good task","Neither Agreement nor Disagreement","Strong Agreement","Strong Disagreement","Slight Agreement","Slight Disagreement","Slight Agreement","Slight Agreement","Slight Disagreement","Slight Agreement","Strong Agreement","Very Strong Agreement","Strong Disagreement","Strong Agreement","Moderate Agreement","Slight Disagreement","Slight Disagreement","Strong Disagreement","Slight Disagreement"
"126","A2G320C9X2VDHH:3EJJQNKU9SBAP4BIRKQIYU0MC4ZHR4","2",8,6,2,"50","<p style=""font-size:100px""><b>V</b></p><p style=""position: absolute; top: 30px; right: 30px; text-align:right; font-size:50px"""">N = 2</p>","V",0,69,112,0,"agree",16,5,14,12,13,"35","Female","everything is clear to me and good task","Neither Agreement nor Disagreement","Strong Agreement","Strong Disagreement","Slight Agreement","Slight Disagreement","Slight Agreement","Slight Agreement","Slight Disagreement","Slight Agreement","Strong Agreement","Very Strong Agreement","Strong Disagreement","Strong Agreement","Moderate Agreement","Slight Disagreement","Slight Disagreement","Strong Disagreement","Slight Disagreement"
"127","A2G320C9X2VDHH:3EJJQNKU9SBAP4BIRKQIYU0MC4ZHR4","2",8,7,2,"50","<p style=""font-size:100px""><b>T</b></p><p style=""position: absolute; top: 30px; right: 30px; text-align:right; font-size:50px"""">N = 2</p>","T",0,73,982,1,"agree",16,5,14,12,13,"35","Female","everything is clear to me and good task","Neither Agreement nor Disagreement","Strong Agreement","Strong Disagreement","Slight Agreement","Slight Disagreement","Slight Agreement","Slight Agreement","Slight Disagreement","Slight Agreement","Strong Agreement","Very Strong Agreement","Strong Disagreement","Strong Agreement","Moderate Agreement","Slight Disagreement","Slight Disagreement","Strong Disagreement","Slight Disagreement"
"128","A2G320C9X2VDHH:3EJJQNKU9SBAP4BIRKQIYU0MC4ZHR4","2",8,8,2,"50","<p style=""font-size:100px""><b>G</b></p><p style=""position: absolute; top: 30px; right: 30px; text-align:right; font-size:50px"""">N = 2</p>","G",0,73,845,1,"agree",16,5,14,12,13,"35","Female","everything is clear to me and good task","Neither Agreement nor Disagreement","Strong Agreement","Strong Disagreement","Slight Agreement","Slight Disagreement","Slight Agreement","Slight Agreement","Slight Disagreement","Slight Agreement","Strong Agreement","Very Strong Agreement","Strong Disagreement","Strong Agreement","Moderate Agreement","Slight Disagreement","Slight Disagreement","Strong Disagreement","Slight Disagreement"
"129","A2G320C9X2VDHH:3EJJQNKU9SBAP4BIRKQIYU0MC4ZHR4","2",8,9,2,"50","<p style=""font-size:100px""><b>V</b></p><p style=""position: absolute; top: 30px; right: 30px; text-align:right; font-size:50px"""">N = 2</p>","V",0,NA,NA,0,"agree",16,5,14,12,13,"35","Female","everything is clear to me and good task","Neither Agreement nor Disagreement","Strong Agreement","Strong Disagreement","Slight Agreement","Slight Disagreement","Slight Agreement","Slight Agreement","Slight Disagreement","Slight Agreement","Strong Agreement","Very Strong Agreement","Strong Disagreement","Strong Agreement","Moderate Agreement","Slight Disagreement","Slight Disagreement","Strong Disagreement","Slight Disagreement"
"130","A2G320C9X2VDHH:3EJJQNKU9SBAP4BIRKQIYU0MC4ZHR4","2",8,10,2,"50","<p style=""font-size:100px""><b>p</b></p><p style=""position: absolute; top: 30px; right: 30px; text-align:right; font-size:50px"""">N = 2</p>","p",0,73,858,1,"agree",16,5,14,12,13,"35","Female","everything is clear to me and good task","Neither Agreement nor Disagreement","Strong Agreement","Strong Disagreement","Slight Agreement","Slight Disagreement","Slight Agreement","Slight Agreement","Slight Disagreement","Slight Agreement","Strong Agreement","Very Strong Agreement","Strong Disagreement","Strong Agreement","Moderate Agreement","Slight Disagreement","Slight Disagreement","Strong Disagreement","Slight Disagreement"
"131","A2G320C9X2VDHH:3EJJQNKU9SBAP4BIRKQIYU0MC4ZHR4","2",8,11,2,"50","<p style=""font-size:100px""><b>V</b></p><p style=""position: absolute; top: 30px; right: 30px; text-align:right; font-size:50px"""">N = 2</p>","V",0,NA,NA,0,"agree",16,5,14,12,13,"35","Female","everything is clear to me and good task","Neither Agreement nor Disagreement","Strong Agreement","Strong Disagreement","Slight Agreement","Slight Disagreement","Slight Agreement","Slight Agreement","Slight Disagreement","Slight Agreement","Strong Agreement","Very Strong Agreement","Strong Disagreement","Strong Agreement","Moderate Agreement","Slight Disagreement","Slight Disagreement","Strong Disagreement","Slight Disagreement"
"132","A2G320C9X2VDHH:3EJJQNKU9SBAP4BIRKQIYU0MC4ZHR4","2",8,12,2,"50","<p style=""font-size:100px""><b>p</b></p><p style=""position: absolute; top: 30px; right: 30px; text-align:right; font-size:50px"""">N = 2</p>","p",0,NA,NA,0,"agree",16,5,14,12,13,"35","Female","everything is clear to me and good task","Neither Agreement nor Disagreement","Strong Agreement","Strong Disagreement","Slight Agreement","Slight Disagreement","Slight Agreement","Slight Agreement","Slight Disagreement","Slight Agreement","Strong Agreement","Very Strong Agreement","Strong Disagreement","Strong Agreement","Moderate Agreement","Slight Disagreement","Slight Disagreement","Strong Disagreement","Slight Disagreement"
"133","A2G320C9X2VDHH:3EJJQNKU9SBAP4BIRKQIYU0MC4ZHR4","2",9,1,2,"5","<p style=""font-size:100px""><b>t</b></p><p style=""position: absolute; top: 30px; right: 30px; text-align:right; font-size:50px"""">N = 2</p>","t",0,69,917,0,"agree",15,4,12,13,15,"35","Female","everything is clear to me and good task","Neither Agreement nor Disagreement","Strong Agreement","Strong Disagreement","Slight Agreement","Slight Disagreement","Slight Agreement","Slight Agreement","Slight Disagreement","Slight Agreement","Strong Agreement","Very Strong Agreement","Strong Disagreement","Strong Agreement","Moderate Agreement","Slight Disagreement","Slight Disagreement","Strong Disagreement","Slight Disagreement"
"134","A2G320C9X2VDHH:3EJJQNKU9SBAP4BIRKQIYU0MC4ZHR4","2",9,2,2,"5","<p style=""font-size:100px""><b>G</b></p><p style=""position: absolute; top: 30px; right: 30px; text-align:right; font-size:50px"""">N = 2</p>","G",0,NA,NA,0,"agree",15,4,12,13,15,"35","Female","everything is clear to me and good task","Neither Agreement nor Disagreement","Strong Agreement","Strong Disagreement","Slight Agreement","Slight Disagreement","Slight Agreement","Slight Agreement","Slight Disagreement","Slight Agreement","Strong Agreement","Very Strong Agreement","Strong Disagreement","Strong Agreement","Moderate Agreement","Slight Disagreement","Slight Disagreement","Strong Disagreement","Slight Disagreement"
"135","A2G320C9X2VDHH:3EJJQNKU9SBAP4BIRKQIYU0MC4ZHR4","2",9,3,2,"5","<p style=""font-size:100px""><b>t</b></p><p style=""position: absolute; top: 30px; right: 30px; text-align:right; font-size:50px"""">N = 2</p>","t",0,73,832,1,"agree",15,4,12,13,15,"35","Female","everything is clear to me and good task","Neither Agreement nor Disagreement","Strong Agreement","Strong Disagreement","Slight Agreement","Slight Disagreement","Slight Agreement","Slight Agreement","Slight Disagreement","Slight Agreement","Strong Agreement","Very Strong Agreement","Strong Disagreement","Strong Agreement","Moderate Agreement","Slight Disagreement","Slight Disagreement","Strong Disagreement","Slight Disagreement"
"136","A2G320C9X2VDHH:3EJJQNKU9SBAP4BIRKQIYU0MC4ZHR4","2",9,4,2,"5","<p style=""font-size:100px""><b>D</b></p><p style=""position: absolute; top: 30px; right: 30px; text-align:right; font-size:50px"""">N = 2</p>","D",0,NA,NA,0,"agree",15,4,12,13,15,"35","Female","everything is clear to me and good task","Neither Agreement nor Disagreement","Strong Agreement","Strong Disagreement","Slight Agreement","Slight Disagreement","Slight Agreement","Slight Agreement","Slight Disagreement","Slight Agreement","Strong Agreement","Very Strong Agreement","Strong Disagreement","Strong Agreement","Moderate Agreement","Slight Disagreement","Slight Disagreement","Strong Disagreement","Slight Disagreement"
"137","A2G320C9X2VDHH:3EJJQNKU9SBAP4BIRKQIYU0MC4ZHR4","2",9,5,2,"5","<p style=""font-size:100px""><b>t</b></p><p style=""position: absolute; top: 30px; right: 30px; text-align:right; font-size:50px"""">N = 2</p>","t",0,NA,NA,0,"agree",15,4,12,13,15,"35","Female","everything is clear to me and good task","Neither Agreement nor Disagreement","Strong Agreement","Strong Disagreement","Slight Agreement","Slight Disagreement","Slight Agreement","Slight Agreement","Slight Disagreement","Slight Agreement","Strong Agreement","Very Strong Agreement","Strong Disagreement","Strong Agreement","Moderate Agreement","Slight Disagreement","Slight Disagreement","Strong Disagreement","Slight Disagreement"
"138","A2G320C9X2VDHH:3EJJQNKU9SBAP4BIRKQIYU0MC4ZHR4","2",9,6,2,"5","<p style=""font-size:100px""><b>b</b></p><p style=""position: absolute; top: 30px; right: 30px; text-align:right; font-size:50px"""">N = 2</p>","b",0,73,861,1,"agree",15,4,12,13,15,"35","Female","everything is clear to me and good task","Neither Agreement nor Disagreement","Strong Agreement","Strong Disagreement","Slight Agreement","Slight Disagreement","Slight Agreement","Slight Agreement","Slight Disagreement","Slight Agreement","Strong Agreement","Very Strong Agreement","Strong Disagreement","Strong Agreement","Moderate Agreement","Slight Disagreement","Slight Disagreement","Strong Disagreement","Slight Disagreement"
"139","A2G320C9X2VDHH:3EJJQNKU9SBAP4BIRKQIYU0MC4ZHR4","2",9,7,2,"5","<p style=""font-size:100px""><b>v</b></p><p style=""position: absolute; top: 30px; right: 30px; text-align:right; font-size:50px"""">N = 2</p>","v",0,NA,NA,0,"agree",15,4,12,13,15,"35","Female","everything is clear to me and good task","Neither Agreement nor Disagreement","Strong Agreement","Strong Disagreement","Slight Agreement","Slight Disagreement","Slight Agreement","Slight Agreement","Slight Disagreement","Slight Agreement","Strong Agreement","Very Strong Agreement","Strong Disagreement","Strong Agreement","Moderate Agreement","Slight Disagreement","Slight Disagreement","Strong Disagreement","Slight Disagreement"
"140","A2G320C9X2VDHH:3EJJQNKU9SBAP4BIRKQIYU0MC4ZHR4","2",9,8,2,"5","<p style=""font-size:100px""><b>d</b></p><p style=""position: absolute; top: 30px; right: 30px; text-align:right; font-size:50px"""">N = 2</p>","d",0,73,889,1,"agree",15,4,12,13,15,"35","Female","everything is clear to me and good task","Neither Agreement nor Disagreement","Strong Agreement","Strong Disagreement","Slight Agreement","Slight Disagreement","Slight Agreement","Slight Agreement","Slight Disagreement","Slight Agreement","Strong Agreement","Very Strong Agreement","Strong Disagreement","Strong Agreement","Moderate Agreement","Slight Disagreement","Slight Disagreement","Strong Disagreement","Slight Disagreement"
"141","A2G320C9X2VDHH:3EJJQNKU9SBAP4BIRKQIYU0MC4ZHR4","2",9,9,2,"5","<p style=""font-size:100px""><b>P</b></p><p style=""position: absolute; top: 30px; right: 30px; text-align:right; font-size:50px"""">N = 2</p>","P",0,NA,NA,0,"agree",15,4,12,13,15,"35","Female","everything is clear to me and good task","Neither Agreement nor Disagreement","Strong Agreement","Strong Disagreement","Slight Agreement","Slight Disagreement","Slight Agreement","Slight Agreement","Slight Disagreement","Slight Agreement","Strong Agreement","Very Strong Agreement","Strong Disagreement","Strong Agreement","Moderate Agreement","Slight Disagreement","Slight Disagreement","Strong Disagreement","Slight Disagreement"
"142","A2G320C9X2VDHH:3EJJQNKU9SBAP4BIRKQIYU0MC4ZHR4","2",9,10,2,"5","<p style=""font-size:100px""><b>B</b></p><p style=""position: absolute; top: 30px; right: 30px; text-align:right; font-size:50px"""">N = 2</p>","B",0,NA,NA,0,"agree",15,4,12,13,15,"35","Female","everything is clear to me and good task","Neither Agreement nor Disagreement","Strong Agreement","Strong Disagreement","Slight Agreement","Slight Disagreement","Slight Agreement","Slight Agreement","Slight Disagreement","Slight Agreement","Strong Agreement","Very Strong Agreement","Strong Disagreement","Strong Agreement","Moderate Agreement","Slight Disagreement","Slight Disagreement","Strong Disagreement","Slight Disagreement"
