"","subject","run","block","trial","N","reward","stimulus","cue","isTarget","key_press","rt","acc","debrief","performance","frustration","demand","temporal","effort","age","gender","comments","nfc1","nfc2","nfc3","nfc4","nfc5","nfc6","nfc7","nfc8","nfc9","nfc10","nfc11","nfc12","nfc13","nfc14","nfc15","nfc16","nfc17","nfc18"
"1","A1OCP9AVM0ZOND:3Y54SXRO1MRSA5UUV82CHOQUUYUTUS","practice",1,1,1,"NA","<p style=""font-size:100px""><b>V</b></p><p style=""position: absolute; top: 30px; right: 30px; text-align:right; font-size:50px"""">N = 1</p>","V",0,69,3936,0,"agree",16,12,14,14,18,"44","Female","I would liked in this task","Neither Agreement nor Disagreement","Slight Agreement","Neither Agreement nor Disagreement","Moderate Agreement","Neither Agreement nor Disagreement","Neither Agreement nor Disagreement","Slight Agreement","Moderate Agreement","Strong Agreement","Moderate Agreement","Slight Agreement","Neither Agreement nor Disagreement","Moderate Agreement","Neither Agreement nor Disagreement","Moderate Agreement","Moderate Agreement","Neither Agreement nor Disagreement","Neither Agreement nor Disagreement"
"2","A1OCP9AVM0ZOND:3Y54SXRO1MRSA5UUV82CHOQUUYUTUS","practice",1,2,1,"NA","<p style=""font-size:100px""><b>V</b></p><p style=""position: absolute; top: 30px; right: 30px; text-align:right; font-size:50px"""">N = 1</p>","V",1,73,1907,0,"agree",16,12,14,14,18,"44","Female","I would liked in this task","Neither Agreement nor Disagreement","Slight Agreement","Neither Agreement nor Disagreement","Moderate Agreement","Neither Agreement nor Disagreement","Neither Agreement nor Disagreement","Slight Agreement","Moderate Agreement","Strong Agreement","Moderate Agreement","Slight Agreement","Neither Agreement nor Disagreement","Moderate Agreement","Neither Agreement nor Disagreement","Moderate Agreement","Moderate Agreement","Neither Agreement nor Disagreement","Neither Agreement nor Disagreement"
"3","A1OCP9AVM0ZOND:3Y54SXRO1MRSA5UUV82CHOQUUYUTUS","practice",1,3,1,"NA","<p style=""font-size:100px""><b>D</b></p><p style=""position: absolute; top: 30px; right: 30px; text-align:right; font-size:50px"""">N = 1</p>","D",0,69,8606,0,"agree",16,12,14,14,18,"44","Female","I would liked in this task","Neither Agreement nor Disagreement","Slight Agreement","Neither Agreement nor Disagreement","Moderate Agreement","Neither Agreement nor Disagreement","Neither Agreement nor Disagreement","Slight Agreement","Moderate Agreement","Strong Agreement","Moderate Agreement","Slight Agreement","Neither Agreement nor Disagreement","Moderate Agreement","Neither Agreement nor Disagreement","Moderate Agreement","Moderate Agreement","Neither Agreement nor Disagreement","Neither Agreement nor Disagreement"
"4","A1OCP9AVM0ZOND:3Y54SXRO1MRSA5UUV82CHOQUUYUTUS","practice",1,4,1,"NA","<p style=""font-size:100px""><b>t</b></p><p style=""position: absolute; top: 30px; right: 30px; text-align:right; font-size:50px"""">N = 1</p>","t",0,73,5297,1,"agree",16,12,14,14,18,"44","Female","I would liked in this task","Neither Agreement nor Disagreement","Slight Agreement","Neither Agreement nor Disagreement","Moderate Agreement","Neither Agreement nor Disagreement","Neither Agreement nor Disagreement","Slight Agreement","Moderate Agreement","Strong Agreement","Moderate Agreement","Slight Agreement","Neither Agreement nor Disagreement","Moderate Agreement","Neither Agreement nor Disagreement","Moderate Agreement","Moderate Agreement","Neither Agreement nor Disagreement","Neither Agreement nor Disagreement"
"5","A1OCP9AVM0ZOND:3Y54SXRO1MRSA5UUV82CHOQUUYUTUS","practice",1,5,1,"NA","<p style=""font-size:100px""><b>D</b></p><p style=""position: absolute; top: 30px; right: 30px; text-align:right; font-size:50px"""">N = 1</p>","D",0,73,3260,1,"agree",16,12,14,14,18,"44","Female","I would liked in this task","Neither Agreement nor Disagreement","Slight Agreement","Neither Agreement nor Disagreement","Moderate Agreement","Neither Agreement nor Disagreement","Neither Agreement nor Disagreement","Slight Agreement","Moderate Agreement","Strong Agreement","Moderate Agreement","Slight Agreement","Neither Agreement nor Disagreement","Moderate Agreement","Neither Agreement nor Disagreement","Moderate Agreement","Moderate Agreement","Neither Agreement nor Disagreement","Neither Agreement nor Disagreement"
"6","A1OCP9AVM0ZOND:3Y54SXRO1MRSA5UUV82CHOQUUYUTUS","practice",1,6,1,"NA","<p style=""font-size:100px""><b>T</b></p><p style=""position: absolute; top: 30px; right: 30px; text-align:right; font-size:50px"""">N = 1</p>","T",0,69,2486,0,"agree",16,12,14,14,18,"44","Female","I would liked in this task","Neither Agreement nor Disagreement","Slight Agreement","Neither Agreement nor Disagreement","Moderate Agreement","Neither Agreement nor Disagreement","Neither Agreement nor Disagreement","Slight Agreement","Moderate Agreement","Strong Agreement","Moderate Agreement","Slight Agreement","Neither Agreement nor Disagreement","Moderate Agreement","Neither Agreement nor Disagreement","Moderate Agreement","Moderate Agreement","Neither Agreement nor Disagreement","Neither Agreement nor Disagreement"
"7","A1OCP9AVM0ZOND:3Y54SXRO1MRSA5UUV82CHOQUUYUTUS","practice",1,7,1,"NA","<p style=""font-size:100px""><b>B</b></p><p style=""position: absolute; top: 30px; right: 30px; text-align:right; font-size:50px"""">N = 1</p>","B",0,73,1437,1,"agree",16,12,14,14,18,"44","Female","I would liked in this task","Neither Agreement nor Disagreement","Slight Agreement","Neither Agreement nor Disagreement","Moderate Agreement","Neither Agreement nor Disagreement","Neither Agreement nor Disagreement","Slight Agreement","Moderate Agreement","Strong Agreement","Moderate Agreement","Slight Agreement","Neither Agreement nor Disagreement","Moderate Agreement","Neither Agreement nor Disagreement","Moderate Agreement","Moderate Agreement","Neither Agreement nor Disagreement","Neither Agreement nor Disagreement"
"8","A1OCP9AVM0ZOND:3Y54SXRO1MRSA5UUV82CHOQUUYUTUS","practice",1,8,1,"NA","<p style=""font-size:100px""><b>B</b></p><p style=""position: absolute; top: 30px; right: 30px; text-align:right; font-size:50px"""">N = 1</p>","B",1,73,3076,0,"agree",16,12,14,14,18,"44","Female","I would liked in this task","Neither Agreement nor Disagreement","Slight Agreement","Neither Agreement nor Disagreement","Moderate Agreement","Neither Agreement nor Disagreement","Neither Agreement nor Disagreement","Slight Agreement","Moderate Agreement","Strong Agreement","Moderate Agreement","Slight Agreement","Neither Agreement nor Disagreement","Moderate Agreement","Neither Agreement nor Disagreement","Moderate Agreement","Moderate Agreement","Neither Agreement nor Disagreement","Neither Agreement nor Disagreement"
"9","A1OCP9AVM0ZOND:3Y54SXRO1MRSA5UUV82CHOQUUYUTUS","practice",1,9,1,"NA","<p style=""font-size:100px""><b>v</b></p><p style=""position: absolute; top: 30px; right: 30px; text-align:right; font-size:50px"""">N = 1</p>","v",0,69,1886,0,"agree",16,12,14,14,18,"44","Female","I would liked in this task","Neither Agreement nor Disagreement","Slight Agreement","Neither Agreement nor Disagreement","Moderate Agreement","Neither Agreement nor Disagreement","Neither Agreement nor Disagreement","Slight Agreement","Moderate Agreement","Strong Agreement","Moderate Agreement","Slight Agreement","Neither Agreement nor Disagreement","Moderate Agreement","Neither Agreement nor Disagreement","Moderate Agreement","Moderate Agreement","Neither Agreement nor Disagreement","Neither Agreement nor Disagreement"
"10","A1OCP9AVM0ZOND:3Y54SXRO1MRSA5UUV82CHOQUUYUTUS","practice",1,10,1,"NA","<p style=""font-size:100px""><b>v</b></p><p style=""position: absolute; top: 30px; right: 30px; text-align:right; font-size:50px"""">N = 1</p>","v",1,73,2588,0,"agree",16,12,14,14,18,"44","Female","I would liked in this task","Neither Agreement nor Disagreement","Slight Agreement","Neither Agreement nor Disagreement","Moderate Agreement","Neither Agreement nor Disagreement","Neither Agreement nor Disagreement","Slight Agreement","Moderate Agreement","Strong Agreement","Moderate Agreement","Slight Agreement","Neither Agreement nor Disagreement","Moderate Agreement","Neither Agreement nor Disagreement","Moderate Agreement","Moderate Agreement","Neither Agreement nor Disagreement","Neither Agreement nor Disagreement"
"11","A1OCP9AVM0ZOND:3Y54SXRO1MRSA5UUV82CHOQUUYUTUS","practice",1,11,1,"NA","<p style=""font-size:100px""><b>v</b></p><p style=""position: absolute; top: 30px; right: 30px; text-align:right; font-size:50px"""">N = 1</p>","v",1,69,3803,1,"agree",16,12,14,14,18,"44","Female","I would liked in this task","Neither Agreement nor Disagreement","Slight Agreement","Neither Agreement nor Disagreement","Moderate Agreement","Neither Agreement nor Disagreement","Neither Agreement nor Disagreement","Slight Agreement","Moderate Agreement","Strong Agreement","Moderate Agreement","Slight Agreement","Neither Agreement nor Disagreement","Moderate Agreement","Neither Agreement nor Disagreement","Moderate Agreement","Moderate Agreement","Neither Agreement nor Disagreement","Neither Agreement nor Disagreement"
"12","A1OCP9AVM0ZOND:3Y54SXRO1MRSA5UUV82CHOQUUYUTUS","practice",1,12,1,"NA","<p style=""font-size:100px""><b>d</b></p><p style=""position: absolute; top: 30px; right: 30px; text-align:right; font-size:50px"""">N = 1</p>","d",0,73,3251,1,"agree",16,12,14,14,18,"44","Female","I would liked in this task","Neither Agreement nor Disagreement","Slight Agreement","Neither Agreement nor Disagreement","Moderate Agreement","Neither Agreement nor Disagreement","Neither Agreement nor Disagreement","Slight Agreement","Moderate Agreement","Strong Agreement","Moderate Agreement","Slight Agreement","Neither Agreement nor Disagreement","Moderate Agreement","Neither Agreement nor Disagreement","Moderate Agreement","Moderate Agreement","Neither Agreement nor Disagreement","Neither Agreement nor Disagreement"
"13","A1OCP9AVM0ZOND:3Y54SXRO1MRSA5UUV82CHOQUUYUTUS","practice",2,1,2,"NA","<p style=""font-size:100px""><b>b</b></p><p style=""position: absolute; top: 30px; right: 30px; text-align:right; font-size:50px"""">N = 2</p>","b",0,73,3143,1,"agree",16,12,14,14,18,"44","Female","I would liked in this task","Neither Agreement nor Disagreement","Slight Agreement","Neither Agreement nor Disagreement","Moderate Agreement","Neither Agreement nor Disagreement","Neither Agreement nor Disagreement","Slight Agreement","Moderate Agreement","Strong Agreement","Moderate Agreement","Slight Agreement","Neither Agreement nor Disagreement","Moderate Agreement","Neither Agreement nor Disagreement","Moderate Agreement","Moderate Agreement","Neither Agreement nor Disagreement","Neither Agreement nor Disagreement"
"14","A1OCP9AVM0ZOND:3Y54SXRO1MRSA5UUV82CHOQUUYUTUS","practice",2,2,2,"NA","<p style=""font-size:100px""><b>G</b></p><p style=""position: absolute; top: 30px; right: 30px; text-align:right; font-size:50px"""">N = 2</p>","G",0,73,2812,1,"agree",16,12,14,14,18,"44","Female","I would liked in this task","Neither Agreement nor Disagreement","Slight Agreement","Neither Agreement nor Disagreement","Moderate Agreement","Neither Agreement nor Disagreement","Neither Agreement nor Disagreement","Slight Agreement","Moderate Agreement","Strong Agreement","Moderate Agreement","Slight Agreement","Neither Agreement nor Disagreement","Moderate Agreement","Neither Agreement nor Disagreement","Moderate Agreement","Moderate Agreement","Neither Agreement nor Disagreement","Neither Agreement nor Disagreement"
"15","A1OCP9AVM0ZOND:3Y54SXRO1MRSA5UUV82CHOQUUYUTUS","practice",2,3,2,"NA","<p style=""font-size:100px""><b>g</b></p><p style=""position: absolute; top: 30px; right: 30px; text-align:right; font-size:50px"""">N = 2</p>","g",0,73,1966,1,"agree",16,12,14,14,18,"44","Female","I would liked in this task","Neither Agreement nor Disagreement","Slight Agreement","Neither Agreement nor Disagreement","Moderate Agreement","Neither Agreement nor Disagreement","Neither Agreement nor Disagreement","Slight Agreement","Moderate Agreement","Strong Agreement","Moderate Agreement","Slight Agreement","Neither Agreement nor Disagreement","Moderate Agreement","Neither Agreement nor Disagreement","Moderate Agreement","Moderate Agreement","Neither Agreement nor Disagreement","Neither Agreement nor Disagreement"
"16","A1OCP9AVM0ZOND:3Y54SXRO1MRSA5UUV82CHOQUUYUTUS","practice",2,4,2,"NA","<p style=""font-size:100px""><b>b</b></p><p style=""position: absolute; top: 30px; right: 30px; text-align:right; font-size:50px"""">N = 2</p>","b",0,73,1271,1,"agree",16,12,14,14,18,"44","Female","I would liked in this task","Neither Agreement nor Disagreement","Slight Agreement","Neither Agreement nor Disagreement","Moderate Agreement","Neither Agreement nor Disagreement","Neither Agreement nor Disagreement","Slight Agreement","Moderate Agreement","Strong Agreement","Moderate Agreement","Slight Agreement","Neither Agreement nor Disagreement","Moderate Agreement","Neither Agreement nor Disagreement","Moderate Agreement","Moderate Agreement","Neither Agreement nor Disagreement","Neither Agreement nor Disagreement"
"17","A1OCP9AVM0ZOND:3Y54SXRO1MRSA5UUV82CHOQUUYUTUS","practice",2,5,2,"NA","<p style=""font-size:100px""><b>v</b></p><p style=""position: absolute; top: 30px; right: 30px; text-align:right; font-size:50px"""">N = 2</p>","v",0,73,1468,1,"agree",16,12,14,14,18,"44","Female","I would liked in this task","Neither Agreement nor Disagreement","Slight Agreement","Neither Agreement nor Disagreement","Moderate Agreement","Neither Agreement nor Disagreement","Neither Agreement nor Disagreement","Slight Agreement","Moderate Agreement","Strong Agreement","Moderate Agreement","Slight Agreement","Neither Agreement nor Disagreement","Moderate Agreement","Neither Agreement nor Disagreement","Moderate Agreement","Moderate Agreement","Neither Agreement nor Disagreement","Neither Agreement nor Disagreement"
"18","A1OCP9AVM0ZOND:3Y54SXRO1MRSA5UUV82CHOQUUYUTUS","practice",2,6,2,"NA","<p style=""font-size:100px""><b>p</b></p><p style=""position: absolute; top: 30px; right: 30px; text-align:right; font-size:50px"""">N = 2</p>","p",0,73,900,1,"agree",16,12,14,14,18,"44","Female","I would liked in this task","Neither Agreement nor Disagreement","Slight Agreement","Neither Agreement nor Disagreement","Moderate Agreement","Neither Agreement nor Disagreement","Neither Agreement nor Disagreement","Slight Agreement","Moderate Agreement","Strong Agreement","Moderate Agreement","Slight Agreement","Neither Agreement nor Disagreement","Moderate Agreement","Neither Agreement nor Disagreement","Moderate Agreement","Moderate Agreement","Neither Agreement nor Disagreement","Neither Agreement nor Disagreement"
"19","A1OCP9AVM0ZOND:3Y54SXRO1MRSA5UUV82CHOQUUYUTUS","practice",2,7,2,"NA","<p style=""font-size:100px""><b>B</b></p><p style=""position: absolute; top: 30px; right: 30px; text-align:right; font-size:50px"""">N = 2</p>","B",0,69,1501,0,"agree",16,12,14,14,18,"44","Female","I would liked in this task","Neither Agreement nor Disagreement","Slight Agreement","Neither Agreement nor Disagreement","Moderate Agreement","Neither Agreement nor Disagreement","Neither Agreement nor Disagreement","Slight Agreement","Moderate Agreement","Strong Agreement","Moderate Agreement","Slight Agreement","Neither Agreement nor Disagreement","Moderate Agreement","Neither Agreement nor Disagreement","Moderate Agreement","Moderate Agreement","Neither Agreement nor Disagreement","Neither Agreement nor Disagreement"
"20","A1OCP9AVM0ZOND:3Y54SXRO1MRSA5UUV82CHOQUUYUTUS","practice",2,8,2,"NA","<p style=""font-size:100px""><b>p</b></p><p style=""position: absolute; top: 30px; right: 30px; text-align:right; font-size:50px"""">N = 2</p>","p",1,69,1200,1,"agree",16,12,14,14,18,"44","Female","I would liked in this task","Neither Agreement nor Disagreement","Slight Agreement","Neither Agreement nor Disagreement","Moderate Agreement","Neither Agreement nor Disagreement","Neither Agreement nor Disagreement","Slight Agreement","Moderate Agreement","Strong Agreement","Moderate Agreement","Slight Agreement","Neither Agreement nor Disagreement","Moderate Agreement","Neither Agreement nor Disagreement","Moderate Agreement","Moderate Agreement","Neither Agreement nor Disagreement","Neither Agreement nor Disagreement"
"21","A1OCP9AVM0ZOND:3Y54SXRO1MRSA5UUV82CHOQUUYUTUS","practice",2,9,2,"NA","<p style=""font-size:100px""><b>g</b></p><p style=""position: absolute; top: 30px; right: 30px; text-align:right; font-size:50px"""">N = 2</p>","g",0,69,825,0,"agree",16,12,14,14,18,"44","Female","I would liked in this task","Neither Agreement nor Disagreement","Slight Agreement","Neither Agreement nor Disagreement","Moderate Agreement","Neither Agreement nor Disagreement","Neither Agreement nor Disagreement","Slight Agreement","Moderate Agreement","Strong Agreement","Moderate Agreement","Slight Agreement","Neither Agreement nor Disagreement","Moderate Agreement","Neither Agreement nor Disagreement","Moderate Agreement","Moderate Agreement","Neither Agreement nor Disagreement","Neither Agreement nor Disagreement"
"22","A1OCP9AVM0ZOND:3Y54SXRO1MRSA5UUV82CHOQUUYUTUS","practice",2,10,2,"NA","<p style=""font-size:100px""><b>p</b></p><p style=""position: absolute; top: 30px; right: 30px; text-align:right; font-size:50px"""">N = 2</p>","p",1,69,1300,1,"agree",16,12,14,14,18,"44","Female","I would liked in this task","Neither Agreement nor Disagreement","Slight Agreement","Neither Agreement nor Disagreement","Moderate Agreement","Neither Agreement nor Disagreement","Neither Agreement nor Disagreement","Slight Agreement","Moderate Agreement","Strong Agreement","Moderate Agreement","Slight Agreement","Neither Agreement nor Disagreement","Moderate Agreement","Neither Agreement nor Disagreement","Moderate Agreement","Moderate Agreement","Neither Agreement nor Disagreement","Neither Agreement nor Disagreement"
"23","A1OCP9AVM0ZOND:3Y54SXRO1MRSA5UUV82CHOQUUYUTUS","practice",2,11,2,"NA","<p style=""font-size:100px""><b>g</b></p><p style=""position: absolute; top: 30px; right: 30px; text-align:right; font-size:50px"""">N = 2</p>","g",1,69,843,1,"agree",16,12,14,14,18,"44","Female","I would liked in this task","Neither Agreement nor Disagreement","Slight Agreement","Neither Agreement nor Disagreement","Moderate Agreement","Neither Agreement nor Disagreement","Neither Agreement nor Disagreement","Slight Agreement","Moderate Agreement","Strong Agreement","Moderate Agreement","Slight Agreement","Neither Agreement nor Disagreement","Moderate Agreement","Neither Agreement nor Disagreement","Moderate Agreement","Moderate Agreement","Neither Agreement nor Disagreement","Neither Agreement nor Disagreement"
"24","A1OCP9AVM0ZOND:3Y54SXRO1MRSA5UUV82CHOQUUYUTUS","practice",2,12,2,"NA","<p style=""font-size:100px""><b>p</b></p><p style=""position: absolute; top: 30px; right: 30px; text-align:right; font-size:50px"""">N = 2</p>","p",1,69,1219,1,"agree",16,12,14,14,18,"44","Female","I would liked in this task","Neither Agreement nor Disagreement","Slight Agreement","Neither Agreement nor Disagreement","Moderate Agreement","Neither Agreement nor Disagreement","Neither Agreement nor Disagreement","Slight Agreement","Moderate Agreement","Strong Agreement","Moderate Agreement","Slight Agreement","Neither Agreement nor Disagreement","Moderate Agreement","Neither Agreement nor Disagreement","Moderate Agreement","Moderate Agreement","Neither Agreement nor Disagreement","Neither Agreement nor Disagreement"
"25","A1OCP9AVM0ZOND:3Y54SXRO1MRSA5UUV82CHOQUUYUTUS","practice",3,1,3,"NA","<p style=""font-size:100px""><b>D</b></p><p style=""position: absolute; top: 30px; right: 30px; text-align:right; font-size:50px"""">N = 3</p>","D",0,73,1214,1,"agree",16,12,14,14,18,"44","Female","I would liked in this task","Neither Agreement nor Disagreement","Slight Agreement","Neither Agreement nor Disagreement","Moderate Agreement","Neither Agreement nor Disagreement","Neither Agreement nor Disagreement","Slight Agreement","Moderate Agreement","Strong Agreement","Moderate Agreement","Slight Agreement","Neither Agreement nor Disagreement","Moderate Agreement","Neither Agreement nor Disagreement","Moderate Agreement","Moderate Agreement","Neither Agreement nor Disagreement","Neither Agreement nor Disagreement"
"26","A1OCP9AVM0ZOND:3Y54SXRO1MRSA5UUV82CHOQUUYUTUS","practice",3,2,3,"NA","<p style=""font-size:100px""><b>p</b></p><p style=""position: absolute; top: 30px; right: 30px; text-align:right; font-size:50px"""">N = 3</p>","p",0,73,1124,1,"agree",16,12,14,14,18,"44","Female","I would liked in this task","Neither Agreement nor Disagreement","Slight Agreement","Neither Agreement nor Disagreement","Moderate Agreement","Neither Agreement nor Disagreement","Neither Agreement nor Disagreement","Slight Agreement","Moderate Agreement","Strong Agreement","Moderate Agreement","Slight Agreement","Neither Agreement nor Disagreement","Moderate Agreement","Neither Agreement nor Disagreement","Moderate Agreement","Moderate Agreement","Neither Agreement nor Disagreement","Neither Agreement nor Disagreement"
"27","A1OCP9AVM0ZOND:3Y54SXRO1MRSA5UUV82CHOQUUYUTUS","practice",3,3,3,"NA","<p style=""font-size:100px""><b>g</b></p><p style=""position: absolute; top: 30px; right: 30px; text-align:right; font-size:50px"""">N = 3</p>","g",0,73,2314,1,"agree",16,12,14,14,18,"44","Female","I would liked in this task","Neither Agreement nor Disagreement","Slight Agreement","Neither Agreement nor Disagreement","Moderate Agreement","Neither Agreement nor Disagreement","Neither Agreement nor Disagreement","Slight Agreement","Moderate Agreement","Strong Agreement","Moderate Agreement","Slight Agreement","Neither Agreement nor Disagreement","Moderate Agreement","Neither Agreement nor Disagreement","Moderate Agreement","Moderate Agreement","Neither Agreement nor Disagreement","Neither Agreement nor Disagreement"
"28","A1OCP9AVM0ZOND:3Y54SXRO1MRSA5UUV82CHOQUUYUTUS","practice",3,4,3,"NA","<p style=""font-size:100px""><b>D</b></p><p style=""position: absolute; top: 30px; right: 30px; text-align:right; font-size:50px"""">N = 3</p>","D",1,73,2935,0,"agree",16,12,14,14,18,"44","Female","I would liked in this task","Neither Agreement nor Disagreement","Slight Agreement","Neither Agreement nor Disagreement","Moderate Agreement","Neither Agreement nor Disagreement","Neither Agreement nor Disagreement","Slight Agreement","Moderate Agreement","Strong Agreement","Moderate Agreement","Slight Agreement","Neither Agreement nor Disagreement","Moderate Agreement","Neither Agreement nor Disagreement","Moderate Agreement","Moderate Agreement","Neither Agreement nor Disagreement","Neither Agreement nor Disagreement"
"29","A1OCP9AVM0ZOND:3Y54SXRO1MRSA5UUV82CHOQUUYUTUS","practice",3,5,3,"NA","<p style=""font-size:100px""><b>D</b></p><p style=""position: absolute; top: 30px; right: 30px; text-align:right; font-size:50px"""">N = 3</p>","D",0,69,1175,0,"agree",16,12,14,14,18,"44","Female","I would liked in this task","Neither Agreement nor Disagreement","Slight Agreement","Neither Agreement nor Disagreement","Moderate Agreement","Neither Agreement nor Disagreement","Neither Agreement nor Disagreement","Slight Agreement","Moderate Agreement","Strong Agreement","Moderate Agreement","Slight Agreement","Neither Agreement nor Disagreement","Moderate Agreement","Neither Agreement nor Disagreement","Moderate Agreement","Moderate Agreement","Neither Agreement nor Disagreement","Neither Agreement nor Disagreement"
"30","A1OCP9AVM0ZOND:3Y54SXRO1MRSA5UUV82CHOQUUYUTUS","practice",3,6,3,"NA","<p style=""font-size:100px""><b>g</b></p><p style=""position: absolute; top: 30px; right: 30px; text-align:right; font-size:50px"""">N = 3</p>","g",1,73,261,0,"agree",16,12,14,14,18,"44","Female","I would liked in this task","Neither Agreement nor Disagreement","Slight Agreement","Neither Agreement nor Disagreement","Moderate Agreement","Neither Agreement nor Disagreement","Neither Agreement nor Disagreement","Slight Agreement","Moderate Agreement","Strong Agreement","Moderate Agreement","Slight Agreement","Neither Agreement nor Disagreement","Moderate Agreement","Neither Agreement nor Disagreement","Moderate Agreement","Moderate Agreement","Neither Agreement nor Disagreement","Neither Agreement nor Disagreement"
"31","A1OCP9AVM0ZOND:3Y54SXRO1MRSA5UUV82CHOQUUYUTUS","practice",3,7,3,"NA","<p style=""font-size:100px""><b>D</b></p><p style=""position: absolute; top: 30px; right: 30px; text-align:right; font-size:50px"""">N = 3</p>","D",1,69,1306,1,"agree",16,12,14,14,18,"44","Female","I would liked in this task","Neither Agreement nor Disagreement","Slight Agreement","Neither Agreement nor Disagreement","Moderate Agreement","Neither Agreement nor Disagreement","Neither Agreement nor Disagreement","Slight Agreement","Moderate Agreement","Strong Agreement","Moderate Agreement","Slight Agreement","Neither Agreement nor Disagreement","Moderate Agreement","Neither Agreement nor Disagreement","Moderate Agreement","Moderate Agreement","Neither Agreement nor Disagreement","Neither Agreement nor Disagreement"
"32","A1OCP9AVM0ZOND:3Y54SXRO1MRSA5UUV82CHOQUUYUTUS","practice",3,8,3,"NA","<p style=""font-size:100px""><b>b</b></p><p style=""position: absolute; top: 30px; right: 30px; text-align:right; font-size:50px"""">N = 3</p>","b",0,73,2137,1,"agree",16,12,14,14,18,"44","Female","I would liked in this task","Neither Agreement nor Disagreement","Slight Agreement","Neither Agreement nor Disagreement","Moderate Agreement","Neither Agreement nor Disagreement","Neither Agreement nor Disagreement","Slight Agreement","Moderate Agreement","Strong Agreement","Moderate Agreement","Slight Agreement","Neither Agreement nor Disagreement","Moderate Agreement","Neither Agreement nor Disagreement","Moderate Agreement","Moderate Agreement","Neither Agreement nor Disagreement","Neither Agreement nor Disagreement"
"33","A1OCP9AVM0ZOND:3Y54SXRO1MRSA5UUV82CHOQUUYUTUS","practice",3,9,3,"NA","<p style=""font-size:100px""><b>V</b></p><p style=""position: absolute; top: 30px; right: 30px; text-align:right; font-size:50px"""">N = 3</p>","V",0,73,2366,1,"agree",16,12,14,14,18,"44","Female","I would liked in this task","Neither Agreement nor Disagreement","Slight Agreement","Neither Agreement nor Disagreement","Moderate Agreement","Neither Agreement nor Disagreement","Neither Agreement nor Disagreement","Slight Agreement","Moderate Agreement","Strong Agreement","Moderate Agreement","Slight Agreement","Neither Agreement nor Disagreement","Moderate Agreement","Neither Agreement nor Disagreement","Moderate Agreement","Moderate Agreement","Neither Agreement nor Disagreement","Neither Agreement nor Disagreement"
"34","A1OCP9AVM0ZOND:3Y54SXRO1MRSA5UUV82CHOQUUYUTUS","practice",3,10,3,"NA","<p style=""font-size:100px""><b>p</b></p><p style=""position: absolute; top: 30px; right: 30px; text-align:right; font-size:50px"""">N = 3</p>","p",0,69,880,0,"agree",16,12,14,14,18,"44","Female","I would liked in this task","Neither Agreement nor Disagreement","Slight Agreement","Neither Agreement nor Disagreement","Moderate Agreement","Neither Agreement nor Disagreement","Neither Agreement nor Disagreement","Slight Agreement","Moderate Agreement","Strong Agreement","Moderate Agreement","Slight Agreement","Neither Agreement nor Disagreement","Moderate Agreement","Neither Agreement nor Disagreement","Moderate Agreement","Moderate Agreement","Neither Agreement nor Disagreement","Neither Agreement nor Disagreement"
"35","A1OCP9AVM0ZOND:3Y54SXRO1MRSA5UUV82CHOQUUYUTUS","practice",3,11,3,"NA","<p style=""font-size:100px""><b>p</b></p><p style=""position: absolute; top: 30px; right: 30px; text-align:right; font-size:50px"""">N = 3</p>","p",0,69,1131,0,"agree",16,12,14,14,18,"44","Female","I would liked in this task","Neither Agreement nor Disagreement","Slight Agreement","Neither Agreement nor Disagreement","Moderate Agreement","Neither Agreement nor Disagreement","Neither Agreement nor Disagreement","Slight Agreement","Moderate Agreement","Strong Agreement","Moderate Agreement","Slight Agreement","Neither Agreement nor Disagreement","Moderate Agreement","Neither Agreement nor Disagreement","Moderate Agreement","Moderate Agreement","Neither Agreement nor Disagreement","Neither Agreement nor Disagreement"
"36","A1OCP9AVM0ZOND:3Y54SXRO1MRSA5UUV82CHOQUUYUTUS","practice",3,12,3,"NA","<p style=""font-size:100px""><b>V</b></p><p style=""position: absolute; top: 30px; right: 30px; text-align:right; font-size:50px"""">N = 3</p>","V",1,73,1837,0,"agree",16,12,14,14,18,"44","Female","I would liked in this task","Neither Agreement nor Disagreement","Slight Agreement","Neither Agreement nor Disagreement","Moderate Agreement","Neither Agreement nor Disagreement","Neither Agreement nor Disagreement","Slight Agreement","Moderate Agreement","Strong Agreement","Moderate Agreement","Slight Agreement","Neither Agreement nor Disagreement","Moderate Agreement","Neither Agreement nor Disagreement","Moderate Agreement","Moderate Agreement","Neither Agreement nor Disagreement","Neither Agreement nor Disagreement"
"37","A1OCP9AVM0ZOND:3Y54SXRO1MRSA5UUV82CHOQUUYUTUS","1",1,1,3,"5","<p style=""font-size:100px""><b>V</b></p><p style=""position: absolute; top: 30px; right: 30px; text-align:right; font-size:50px"""">N = 3</p>","V",0,NA,NA,0,"agree",16,12,14,14,18,"44","Female","I would liked in this task","Neither Agreement nor Disagreement","Slight Agreement","Neither Agreement nor Disagreement","Moderate Agreement","Neither Agreement nor Disagreement","Neither Agreement nor Disagreement","Slight Agreement","Moderate Agreement","Strong Agreement","Moderate Agreement","Slight Agreement","Neither Agreement nor Disagreement","Moderate Agreement","Neither Agreement nor Disagreement","Moderate Agreement","Moderate Agreement","Neither Agreement nor Disagreement","Neither Agreement nor Disagreement"
"38","A1OCP9AVM0ZOND:3Y54SXRO1MRSA5UUV82CHOQUUYUTUS","1",1,2,3,"5","<p style=""font-size:100px""><b>G</b></p><p style=""position: absolute; top: 30px; right: 30px; text-align:right; font-size:50px"""">N = 3</p>","G",0,73,241,1,"agree",16,12,14,14,18,"44","Female","I would liked in this task","Neither Agreement nor Disagreement","Slight Agreement","Neither Agreement nor Disagreement","Moderate Agreement","Neither Agreement nor Disagreement","Neither Agreement nor Disagreement","Slight Agreement","Moderate Agreement","Strong Agreement","Moderate Agreement","Slight Agreement","Neither Agreement nor Disagreement","Moderate Agreement","Neither Agreement nor Disagreement","Moderate Agreement","Moderate Agreement","Neither Agreement nor Disagreement","Neither Agreement nor Disagreement"
"39","A1OCP9AVM0ZOND:3Y54SXRO1MRSA5UUV82CHOQUUYUTUS","1",1,3,3,"5","<p style=""font-size:100px""><b>t</b></p><p style=""position: absolute; top: 30px; right: 30px; text-align:right; font-size:50px"""">N = 3</p>","t",0,NA,NA,0,"agree",16,12,14,14,18,"44","Female","I would liked in this task","Neither Agreement nor Disagreement","Slight Agreement","Neither Agreement nor Disagreement","Moderate Agreement","Neither Agreement nor Disagreement","Neither Agreement nor Disagreement","Slight Agreement","Moderate Agreement","Strong Agreement","Moderate Agreement","Slight Agreement","Neither Agreement nor Disagreement","Moderate Agreement","Neither Agreement nor Disagreement","Moderate Agreement","Moderate Agreement","Neither Agreement nor Disagreement","Neither Agreement nor Disagreement"
"40","A1OCP9AVM0ZOND:3Y54SXRO1MRSA5UUV82CHOQUUYUTUS","1",1,4,3,"5","<p style=""font-size:100px""><b>V</b></p><p style=""position: absolute; top: 30px; right: 30px; text-align:right; font-size:50px"""">N = 3</p>","V",0,NA,NA,0,"agree",16,12,14,14,18,"44","Female","I would liked in this task","Neither Agreement nor Disagreement","Slight Agreement","Neither Agreement nor Disagreement","Moderate Agreement","Neither Agreement nor Disagreement","Neither Agreement nor Disagreement","Slight Agreement","Moderate Agreement","Strong Agreement","Moderate Agreement","Slight Agreement","Neither Agreement nor Disagreement","Moderate Agreement","Neither Agreement nor Disagreement","Moderate Agreement","Moderate Agreement","Neither Agreement nor Disagreement","Neither Agreement nor Disagreement"
"41","A1OCP9AVM0ZOND:3Y54SXRO1MRSA5UUV82CHOQUUYUTUS","1",1,5,3,"5","<p style=""font-size:100px""><b>G</b></p><p style=""position: absolute; top: 30px; right: 30px; text-align:right; font-size:50px"""">N = 3</p>","G",0,NA,NA,0,"agree",16,12,14,14,18,"44","Female","I would liked in this task","Neither Agreement nor Disagreement","Slight Agreement","Neither Agreement nor Disagreement","Moderate Agreement","Neither Agreement nor Disagreement","Neither Agreement nor Disagreement","Slight Agreement","Moderate Agreement","Strong Agreement","Moderate Agreement","Slight Agreement","Neither Agreement nor Disagreement","Moderate Agreement","Neither Agreement nor Disagreement","Moderate Agreement","Moderate Agreement","Neither Agreement nor Disagreement","Neither Agreement nor Disagreement"
"42","A1OCP9AVM0ZOND:3Y54SXRO1MRSA5UUV82CHOQUUYUTUS","1",1,6,3,"5","<p style=""font-size:100px""><b>P</b></p><p style=""position: absolute; top: 30px; right: 30px; text-align:right; font-size:50px"""">N = 3</p>","P",0,73,475,1,"agree",16,12,14,14,18,"44","Female","I would liked in this task","Neither Agreement nor Disagreement","Slight Agreement","Neither Agreement nor Disagreement","Moderate Agreement","Neither Agreement nor Disagreement","Neither Agreement nor Disagreement","Slight Agreement","Moderate Agreement","Strong Agreement","Moderate Agreement","Slight Agreement","Neither Agreement nor Disagreement","Moderate Agreement","Neither Agreement nor Disagreement","Moderate Agreement","Moderate Agreement","Neither Agreement nor Disagreement","Neither Agreement nor Disagreement"
"43","A1OCP9AVM0ZOND:3Y54SXRO1MRSA5UUV82CHOQUUYUTUS","1",1,7,3,"5","<p style=""font-size:100px""><b>T</b></p><p style=""position: absolute; top: 30px; right: 30px; text-align:right; font-size:50px"""">N = 3</p>","T",0,NA,NA,0,"agree",16,12,14,14,18,"44","Female","I would liked in this task","Neither Agreement nor Disagreement","Slight Agreement","Neither Agreement nor Disagreement","Moderate Agreement","Neither Agreement nor Disagreement","Neither Agreement nor Disagreement","Slight Agreement","Moderate Agreement","Strong Agreement","Moderate Agreement","Slight Agreement","Neither Agreement nor Disagreement","Moderate Agreement","Neither Agreement nor Disagreement","Moderate Agreement","Moderate Agreement","Neither Agreement nor Disagreement","Neither Agreement nor Disagreement"
"44","A1OCP9AVM0ZOND:3Y54SXRO1MRSA5UUV82CHOQUUYUTUS","1",1,8,3,"5","<p style=""font-size:100px""><b>G</b></p><p style=""position: absolute; top: 30px; right: 30px; text-align:right; font-size:50px"""">N = 3</p>","G",0,NA,NA,0,"agree",16,12,14,14,18,"44","Female","I would liked in this task","Neither Agreement nor Disagreement","Slight Agreement","Neither Agreement nor Disagreement","Moderate Agreement","Neither Agreement nor Disagreement","Neither Agreement nor Disagreement","Slight Agreement","Moderate Agreement","Strong Agreement","Moderate Agreement","Slight Agreement","Neither Agreement nor Disagreement","Moderate Agreement","Neither Agreement nor Disagreement","Moderate Agreement","Moderate Agreement","Neither Agreement nor Disagreement","Neither Agreement nor Disagreement"
"45","A1OCP9AVM0ZOND:3Y54SXRO1MRSA5UUV82CHOQUUYUTUS","1",1,9,3,"5","<p style=""font-size:100px""><b>D</b></p><p style=""position: absolute; top: 30px; right: 30px; text-align:right; font-size:50px"""">N = 3</p>","D",0,NA,NA,0,"agree",16,12,14,14,18,"44","Female","I would liked in this task","Neither Agreement nor Disagreement","Slight Agreement","Neither Agreement nor Disagreement","Moderate Agreement","Neither Agreement nor Disagreement","Neither Agreement nor Disagreement","Slight Agreement","Moderate Agreement","Strong Agreement","Moderate Agreement","Slight Agreement","Neither Agreement nor Disagreement","Moderate Agreement","Neither Agreement nor Disagreement","Moderate Agreement","Moderate Agreement","Neither Agreement nor Disagreement","Neither Agreement nor Disagreement"
"46","A1OCP9AVM0ZOND:3Y54SXRO1MRSA5UUV82CHOQUUYUTUS","1",1,10,3,"5","<p style=""font-size:100px""><b>T</b></p><p style=""position: absolute; top: 30px; right: 30px; text-align:right; font-size:50px"""">N = 3</p>","T",0,NA,NA,0,"agree",16,12,14,14,18,"44","Female","I would liked in this task","Neither Agreement nor Disagreement","Slight Agreement","Neither Agreement nor Disagreement","Moderate Agreement","Neither Agreement nor Disagreement","Neither Agreement nor Disagreement","Slight Agreement","Moderate Agreement","Strong Agreement","Moderate Agreement","Slight Agreement","Neither Agreement nor Disagreement","Moderate Agreement","Neither Agreement nor Disagreement","Moderate Agreement","Moderate Agreement","Neither Agreement nor Disagreement","Neither Agreement nor Disagreement"
"47","A1OCP9AVM0ZOND:3Y54SXRO1MRSA5UUV82CHOQUUYUTUS","1",1,11,3,"5","<p style=""font-size:100px""><b>t</b></p><p style=""position: absolute; top: 30px; right: 30px; text-align:right; font-size:50px"""">N = 3</p>","t",0,NA,NA,0,"agree",16,12,14,14,18,"44","Female","I would liked in this task","Neither Agreement nor Disagreement","Slight Agreement","Neither Agreement nor Disagreement","Moderate Agreement","Neither Agreement nor Disagreement","Neither Agreement nor Disagreement","Slight Agreement","Moderate Agreement","Strong Agreement","Moderate Agreement","Slight Agreement","Neither Agreement nor Disagreement","Moderate Agreement","Neither Agreement nor Disagreement","Moderate Agreement","Moderate Agreement","Neither Agreement nor Disagreement","Neither Agreement nor Disagreement"
"48","A1OCP9AVM0ZOND:3Y54SXRO1MRSA5UUV82CHOQUUYUTUS","1",1,12,3,"5","<p style=""font-size:100px""><b>V</b></p><p style=""position: absolute; top: 30px; right: 30px; text-align:right; font-size:50px"""">N = 3</p>","V",0,NA,NA,0,"agree",16,12,14,14,18,"44","Female","I would liked in this task","Neither Agreement nor Disagreement","Slight Agreement","Neither Agreement nor Disagreement","Moderate Agreement","Neither Agreement nor Disagreement","Neither Agreement nor Disagreement","Slight Agreement","Moderate Agreement","Strong Agreement","Moderate Agreement","Slight Agreement","Neither Agreement nor Disagreement","Moderate Agreement","Neither Agreement nor Disagreement","Moderate Agreement","Moderate Agreement","Neither Agreement nor Disagreement","Neither Agreement nor Disagreement"
"49","A1OCP9AVM0ZOND:3Y54SXRO1MRSA5UUV82CHOQUUYUTUS","1",2,1,3,"50","<p style=""font-size:100px""><b>D</b></p><p style=""position: absolute; top: 30px; right: 30px; text-align:right; font-size:50px"""">N = 3</p>","D",0,NA,NA,0,"agree",17,14,13,14,13,"44","Female","I would liked in this task","Neither Agreement nor Disagreement","Slight Agreement","Neither Agreement nor Disagreement","Moderate Agreement","Neither Agreement nor Disagreement","Neither Agreement nor Disagreement","Slight Agreement","Moderate Agreement","Strong Agreement","Moderate Agreement","Slight Agreement","Neither Agreement nor Disagreement","Moderate Agreement","Neither Agreement nor Disagreement","Moderate Agreement","Moderate Agreement","Neither Agreement nor Disagreement","Neither Agreement nor Disagreement"
"50","A1OCP9AVM0ZOND:3Y54SXRO1MRSA5UUV82CHOQUUYUTUS","1",2,2,3,"50","<p style=""font-size:100px""><b>T</b></p><p style=""position: absolute; top: 30px; right: 30px; text-align:right; font-size:50px"""">N = 3</p>","T",0,NA,NA,0,"agree",17,14,13,14,13,"44","Female","I would liked in this task","Neither Agreement nor Disagreement","Slight Agreement","Neither Agreement nor Disagreement","Moderate Agreement","Neither Agreement nor Disagreement","Neither Agreement nor Disagreement","Slight Agreement","Moderate Agreement","Strong Agreement","Moderate Agreement","Slight Agreement","Neither Agreement nor Disagreement","Moderate Agreement","Neither Agreement nor Disagreement","Moderate Agreement","Moderate Agreement","Neither Agreement nor Disagreement","Neither Agreement nor Disagreement"
"51","A1OCP9AVM0ZOND:3Y54SXRO1MRSA5UUV82CHOQUUYUTUS","1",2,3,3,"50","<p style=""font-size:100px""><b>B</b></p><p style=""position: absolute; top: 30px; right: 30px; text-align:right; font-size:50px"""">N = 3</p>","B",0,NA,NA,0,"agree",17,14,13,14,13,"44","Female","I would liked in this task","Neither Agreement nor Disagreement","Slight Agreement","Neither Agreement nor Disagreement","Moderate Agreement","Neither Agreement nor Disagreement","Neither Agreement nor Disagreement","Slight Agreement","Moderate Agreement","Strong Agreement","Moderate Agreement","Slight Agreement","Neither Agreement nor Disagreement","Moderate Agreement","Neither Agreement nor Disagreement","Moderate Agreement","Moderate Agreement","Neither Agreement nor Disagreement","Neither Agreement nor Disagreement"
"52","A1OCP9AVM0ZOND:3Y54SXRO1MRSA5UUV82CHOQUUYUTUS","1",2,4,3,"50","<p style=""font-size:100px""><b>b</b></p><p style=""position: absolute; top: 30px; right: 30px; text-align:right; font-size:50px"""">N = 3</p>","b",0,NA,NA,0,"agree",17,14,13,14,13,"44","Female","I would liked in this task","Neither Agreement nor Disagreement","Slight Agreement","Neither Agreement nor Disagreement","Moderate Agreement","Neither Agreement nor Disagreement","Neither Agreement nor Disagreement","Slight Agreement","Moderate Agreement","Strong Agreement","Moderate Agreement","Slight Agreement","Neither Agreement nor Disagreement","Moderate Agreement","Neither Agreement nor Disagreement","Moderate Agreement","Moderate Agreement","Neither Agreement nor Disagreement","Neither Agreement nor Disagreement"
"53","A1OCP9AVM0ZOND:3Y54SXRO1MRSA5UUV82CHOQUUYUTUS","1",2,5,3,"50","<p style=""font-size:100px""><b>T</b></p><p style=""position: absolute; top: 30px; right: 30px; text-align:right; font-size:50px"""">N = 3</p>","T",0,NA,NA,0,"agree",17,14,13,14,13,"44","Female","I would liked in this task","Neither Agreement nor Disagreement","Slight Agreement","Neither Agreement nor Disagreement","Moderate Agreement","Neither Agreement nor Disagreement","Neither Agreement nor Disagreement","Slight Agreement","Moderate Agreement","Strong Agreement","Moderate Agreement","Slight Agreement","Neither Agreement nor Disagreement","Moderate Agreement","Neither Agreement nor Disagreement","Moderate Agreement","Moderate Agreement","Neither Agreement nor Disagreement","Neither Agreement nor Disagreement"
"54","A1OCP9AVM0ZOND:3Y54SXRO1MRSA5UUV82CHOQUUYUTUS","1",2,6,3,"50","<p style=""font-size:100px""><b>B</b></p><p style=""position: absolute; top: 30px; right: 30px; text-align:right; font-size:50px"""">N = 3</p>","B",0,69,530,0,"agree",17,14,13,14,13,"44","Female","I would liked in this task","Neither Agreement nor Disagreement","Slight Agreement","Neither Agreement nor Disagreement","Moderate Agreement","Neither Agreement nor Disagreement","Neither Agreement nor Disagreement","Slight Agreement","Moderate Agreement","Strong Agreement","Moderate Agreement","Slight Agreement","Neither Agreement nor Disagreement","Moderate Agreement","Neither Agreement nor Disagreement","Moderate Agreement","Moderate Agreement","Neither Agreement nor Disagreement","Neither Agreement nor Disagreement"
"55","A1OCP9AVM0ZOND:3Y54SXRO1MRSA5UUV82CHOQUUYUTUS","1",2,7,3,"50","<p style=""font-size:100px""><b>b</b></p><p style=""position: absolute; top: 30px; right: 30px; text-align:right; font-size:50px"""">N = 3</p>","b",0,NA,NA,0,"agree",17,14,13,14,13,"44","Female","I would liked in this task","Neither Agreement nor Disagreement","Slight Agreement","Neither Agreement nor Disagreement","Moderate Agreement","Neither Agreement nor Disagreement","Neither Agreement nor Disagreement","Slight Agreement","Moderate Agreement","Strong Agreement","Moderate Agreement","Slight Agreement","Neither Agreement nor Disagreement","Moderate Agreement","Neither Agreement nor Disagreement","Moderate Agreement","Moderate Agreement","Neither Agreement nor Disagreement","Neither Agreement nor Disagreement"
"56","A1OCP9AVM0ZOND:3Y54SXRO1MRSA5UUV82CHOQUUYUTUS","1",2,8,3,"50","<p style=""font-size:100px""><b>T</b></p><p style=""position: absolute; top: 30px; right: 30px; text-align:right; font-size:50px"""">N = 3</p>","T",0,NA,NA,0,"agree",17,14,13,14,13,"44","Female","I would liked in this task","Neither Agreement nor Disagreement","Slight Agreement","Neither Agreement nor Disagreement","Moderate Agreement","Neither Agreement nor Disagreement","Neither Agreement nor Disagreement","Slight Agreement","Moderate Agreement","Strong Agreement","Moderate Agreement","Slight Agreement","Neither Agreement nor Disagreement","Moderate Agreement","Neither Agreement nor Disagreement","Moderate Agreement","Moderate Agreement","Neither Agreement nor Disagreement","Neither Agreement nor Disagreement"
"57","A1OCP9AVM0ZOND:3Y54SXRO1MRSA5UUV82CHOQUUYUTUS","1",2,9,3,"50","<p style=""font-size:100px""><b>G</b></p><p style=""position: absolute; top: 30px; right: 30px; text-align:right; font-size:50px"""">N = 3</p>","G",0,NA,NA,0,"agree",17,14,13,14,13,"44","Female","I would liked in this task","Neither Agreement nor Disagreement","Slight Agreement","Neither Agreement nor Disagreement","Moderate Agreement","Neither Agreement nor Disagreement","Neither Agreement nor Disagreement","Slight Agreement","Moderate Agreement","Strong Agreement","Moderate Agreement","Slight Agreement","Neither Agreement nor Disagreement","Moderate Agreement","Neither Agreement nor Disagreement","Moderate Agreement","Moderate Agreement","Neither Agreement nor Disagreement","Neither Agreement nor Disagreement"
"58","A1OCP9AVM0ZOND:3Y54SXRO1MRSA5UUV82CHOQUUYUTUS","1",2,10,3,"50","<p style=""font-size:100px""><b>p</b></p><p style=""position: absolute; top: 30px; right: 30px; text-align:right; font-size:50px"""">N = 3</p>","p",0,NA,NA,0,"agree",17,14,13,14,13,"44","Female","I would liked in this task","Neither Agreement nor Disagreement","Slight Agreement","Neither Agreement nor Disagreement","Moderate Agreement","Neither Agreement nor Disagreement","Neither Agreement nor Disagreement","Slight Agreement","Moderate Agreement","Strong Agreement","Moderate Agreement","Slight Agreement","Neither Agreement nor Disagreement","Moderate Agreement","Neither Agreement nor Disagreement","Moderate Agreement","Moderate Agreement","Neither Agreement nor Disagreement","Neither Agreement nor Disagreement"
"59","A1OCP9AVM0ZOND:3Y54SXRO1MRSA5UUV82CHOQUUYUTUS","1",2,11,3,"50","<p style=""font-size:100px""><b>G</b></p><p style=""position: absolute; top: 30px; right: 30px; text-align:right; font-size:50px"""">N = 3</p>","G",0,NA,NA,0,"agree",17,14,13,14,13,"44","Female","I would liked in this task","Neither Agreement nor Disagreement","Slight Agreement","Neither Agreement nor Disagreement","Moderate Agreement","Neither Agreement nor Disagreement","Neither Agreement nor Disagreement","Slight Agreement","Moderate Agreement","Strong Agreement","Moderate Agreement","Slight Agreement","Neither Agreement nor Disagreement","Moderate Agreement","Neither Agreement nor Disagreement","Moderate Agreement","Moderate Agreement","Neither Agreement nor Disagreement","Neither Agreement nor Disagreement"
"60","A1OCP9AVM0ZOND:3Y54SXRO1MRSA5UUV82CHOQUUYUTUS","1",2,12,3,"50","<p style=""font-size:100px""><b>t</b></p><p style=""position: absolute; top: 30px; right: 30px; text-align:right; font-size:50px"""">N = 3</p>","t",0,NA,NA,0,"agree",17,14,13,14,13,"44","Female","I would liked in this task","Neither Agreement nor Disagreement","Slight Agreement","Neither Agreement nor Disagreement","Moderate Agreement","Neither Agreement nor Disagreement","Neither Agreement nor Disagreement","Slight Agreement","Moderate Agreement","Strong Agreement","Moderate Agreement","Slight Agreement","Neither Agreement nor Disagreement","Moderate Agreement","Neither Agreement nor Disagreement","Moderate Agreement","Moderate Agreement","Neither Agreement nor Disagreement","Neither Agreement nor Disagreement"
"61","A1OCP9AVM0ZOND:3Y54SXRO1MRSA5UUV82CHOQUUYUTUS","1",3,1,3,"50","<p style=""font-size:100px""><b>d</b></p><p style=""position: absolute; top: 30px; right: 30px; text-align:right; font-size:50px"""">N = 3</p>","d",0,NA,NA,0,"agree",17,12,13,14,16,"44","Female","I would liked in this task","Neither Agreement nor Disagreement","Slight Agreement","Neither Agreement nor Disagreement","Moderate Agreement","Neither Agreement nor Disagreement","Neither Agreement nor Disagreement","Slight Agreement","Moderate Agreement","Strong Agreement","Moderate Agreement","Slight Agreement","Neither Agreement nor Disagreement","Moderate Agreement","Neither Agreement nor Disagreement","Moderate Agreement","Moderate Agreement","Neither Agreement nor Disagreement","Neither Agreement nor Disagreement"
"62","A1OCP9AVM0ZOND:3Y54SXRO1MRSA5UUV82CHOQUUYUTUS","1",3,2,3,"50","<p style=""font-size:100px""><b>G</b></p><p style=""position: absolute; top: 30px; right: 30px; text-align:right; font-size:50px"""">N = 3</p>","G",0,73,40,1,"agree",17,12,13,14,16,"44","Female","I would liked in this task","Neither Agreement nor Disagreement","Slight Agreement","Neither Agreement nor Disagreement","Moderate Agreement","Neither Agreement nor Disagreement","Neither Agreement nor Disagreement","Slight Agreement","Moderate Agreement","Strong Agreement","Moderate Agreement","Slight Agreement","Neither Agreement nor Disagreement","Moderate Agreement","Neither Agreement nor Disagreement","Moderate Agreement","Moderate Agreement","Neither Agreement nor Disagreement","Neither Agreement nor Disagreement"
"63","A1OCP9AVM0ZOND:3Y54SXRO1MRSA5UUV82CHOQUUYUTUS","1",3,3,3,"50","<p style=""font-size:100px""><b>P</b></p><p style=""position: absolute; top: 30px; right: 30px; text-align:right; font-size:50px"""">N = 3</p>","P",0,NA,NA,0,"agree",17,12,13,14,16,"44","Female","I would liked in this task","Neither Agreement nor Disagreement","Slight Agreement","Neither Agreement nor Disagreement","Moderate Agreement","Neither Agreement nor Disagreement","Neither Agreement nor Disagreement","Slight Agreement","Moderate Agreement","Strong Agreement","Moderate Agreement","Slight Agreement","Neither Agreement nor Disagreement","Moderate Agreement","Neither Agreement nor Disagreement","Moderate Agreement","Moderate Agreement","Neither Agreement nor Disagreement","Neither Agreement nor Disagreement"
"64","A1OCP9AVM0ZOND:3Y54SXRO1MRSA5UUV82CHOQUUYUTUS","1",3,4,3,"50","<p style=""font-size:100px""><b>d</b></p><p style=""position: absolute; top: 30px; right: 30px; text-align:right; font-size:50px"""">N = 3</p>","d",0,NA,NA,0,"agree",17,12,13,14,16,"44","Female","I would liked in this task","Neither Agreement nor Disagreement","Slight Agreement","Neither Agreement nor Disagreement","Moderate Agreement","Neither Agreement nor Disagreement","Neither Agreement nor Disagreement","Slight Agreement","Moderate Agreement","Strong Agreement","Moderate Agreement","Slight Agreement","Neither Agreement nor Disagreement","Moderate Agreement","Neither Agreement nor Disagreement","Moderate Agreement","Moderate Agreement","Neither Agreement nor Disagreement","Neither Agreement nor Disagreement"
"65","A1OCP9AVM0ZOND:3Y54SXRO1MRSA5UUV82CHOQUUYUTUS","1",3,5,3,"50","<p style=""font-size:100px""><b>b</b></p><p style=""position: absolute; top: 30px; right: 30px; text-align:right; font-size:50px"""">N = 3</p>","b",0,NA,NA,0,"agree",17,12,13,14,16,"44","Female","I would liked in this task","Neither Agreement nor Disagreement","Slight Agreement","Neither Agreement nor Disagreement","Moderate Agreement","Neither Agreement nor Disagreement","Neither Agreement nor Disagreement","Slight Agreement","Moderate Agreement","Strong Agreement","Moderate Agreement","Slight Agreement","Neither Agreement nor Disagreement","Moderate Agreement","Neither Agreement nor Disagreement","Moderate Agreement","Moderate Agreement","Neither Agreement nor Disagreement","Neither Agreement nor Disagreement"
"66","A1OCP9AVM0ZOND:3Y54SXRO1MRSA5UUV82CHOQUUYUTUS","1",3,6,3,"50","<p style=""font-size:100px""><b>g</b></p><p style=""position: absolute; top: 30px; right: 30px; text-align:right; font-size:50px"""">N = 3</p>","g",0,73,846,1,"agree",17,12,13,14,16,"44","Female","I would liked in this task","Neither Agreement nor Disagreement","Slight Agreement","Neither Agreement nor Disagreement","Moderate Agreement","Neither Agreement nor Disagreement","Neither Agreement nor Disagreement","Slight Agreement","Moderate Agreement","Strong Agreement","Moderate Agreement","Slight Agreement","Neither Agreement nor Disagreement","Moderate Agreement","Neither Agreement nor Disagreement","Moderate Agreement","Moderate Agreement","Neither Agreement nor Disagreement","Neither Agreement nor Disagreement"
"67","A1OCP9AVM0ZOND:3Y54SXRO1MRSA5UUV82CHOQUUYUTUS","1",3,7,3,"50","<p style=""font-size:100px""><b>d</b></p><p style=""position: absolute; top: 30px; right: 30px; text-align:right; font-size:50px"""">N = 3</p>","d",0,NA,NA,0,"agree",17,12,13,14,16,"44","Female","I would liked in this task","Neither Agreement nor Disagreement","Slight Agreement","Neither Agreement nor Disagreement","Moderate Agreement","Neither Agreement nor Disagreement","Neither Agreement nor Disagreement","Slight Agreement","Moderate Agreement","Strong Agreement","Moderate Agreement","Slight Agreement","Neither Agreement nor Disagreement","Moderate Agreement","Neither Agreement nor Disagreement","Moderate Agreement","Moderate Agreement","Neither Agreement nor Disagreement","Neither Agreement nor Disagreement"
"68","A1OCP9AVM0ZOND:3Y54SXRO1MRSA5UUV82CHOQUUYUTUS","1",3,8,3,"50","<p style=""font-size:100px""><b>b</b></p><p style=""position: absolute; top: 30px; right: 30px; text-align:right; font-size:50px"""">N = 3</p>","b",0,NA,NA,0,"agree",17,12,13,14,16,"44","Female","I would liked in this task","Neither Agreement nor Disagreement","Slight Agreement","Neither Agreement nor Disagreement","Moderate Agreement","Neither Agreement nor Disagreement","Neither Agreement nor Disagreement","Slight Agreement","Moderate Agreement","Strong Agreement","Moderate Agreement","Slight Agreement","Neither Agreement nor Disagreement","Moderate Agreement","Neither Agreement nor Disagreement","Moderate Agreement","Moderate Agreement","Neither Agreement nor Disagreement","Neither Agreement nor Disagreement"
"69","A1OCP9AVM0ZOND:3Y54SXRO1MRSA5UUV82CHOQUUYUTUS","1",3,9,3,"50","<p style=""font-size:100px""><b>g</b></p><p style=""position: absolute; top: 30px; right: 30px; text-align:right; font-size:50px"""">N = 3</p>","g",0,NA,NA,0,"agree",17,12,13,14,16,"44","Female","I would liked in this task","Neither Agreement nor Disagreement","Slight Agreement","Neither Agreement nor Disagreement","Moderate Agreement","Neither Agreement nor Disagreement","Neither Agreement nor Disagreement","Slight Agreement","Moderate Agreement","Strong Agreement","Moderate Agreement","Slight Agreement","Neither Agreement nor Disagreement","Moderate Agreement","Neither Agreement nor Disagreement","Moderate Agreement","Moderate Agreement","Neither Agreement nor Disagreement","Neither Agreement nor Disagreement"
"70","A1OCP9AVM0ZOND:3Y54SXRO1MRSA5UUV82CHOQUUYUTUS","1",3,10,3,"50","<p style=""font-size:100px""><b>b</b></p><p style=""position: absolute; top: 30px; right: 30px; text-align:right; font-size:50px"""">N = 3</p>","b",0,69,883,0,"agree",17,12,13,14,16,"44","Female","I would liked in this task","Neither Agreement nor Disagreement","Slight Agreement","Neither Agreement nor Disagreement","Moderate Agreement","Neither Agreement nor Disagreement","Neither Agreement nor Disagreement","Slight Agreement","Moderate Agreement","Strong Agreement","Moderate Agreement","Slight Agreement","Neither Agreement nor Disagreement","Moderate Agreement","Neither Agreement nor Disagreement","Moderate Agreement","Moderate Agreement","Neither Agreement nor Disagreement","Neither Agreement nor Disagreement"
"71","A1OCP9AVM0ZOND:3Y54SXRO1MRSA5UUV82CHOQUUYUTUS","1",3,11,3,"50","<p style=""font-size:100px""><b>p</b></p><p style=""position: absolute; top: 30px; right: 30px; text-align:right; font-size:50px"""">N = 3</p>","p",0,NA,NA,0,"agree",17,12,13,14,16,"44","Female","I would liked in this task","Neither Agreement nor Disagreement","Slight Agreement","Neither Agreement nor Disagreement","Moderate Agreement","Neither Agreement nor Disagreement","Neither Agreement nor Disagreement","Slight Agreement","Moderate Agreement","Strong Agreement","Moderate Agreement","Slight Agreement","Neither Agreement nor Disagreement","Moderate Agreement","Neither Agreement nor Disagreement","Moderate Agreement","Moderate Agreement","Neither Agreement nor Disagreement","Neither Agreement nor Disagreement"
"72","A1OCP9AVM0ZOND:3Y54SXRO1MRSA5UUV82CHOQUUYUTUS","1",3,12,3,"50","<p style=""font-size:100px""><b>d</b></p><p style=""position: absolute; top: 30px; right: 30px; text-align:right; font-size:50px"""">N = 3</p>","d",0,NA,NA,0,"agree",17,12,13,14,16,"44","Female","I would liked in this task","Neither Agreement nor Disagreement","Slight Agreement","Neither Agreement nor Disagreement","Moderate Agreement","Neither Agreement nor Disagreement","Neither Agreement nor Disagreement","Slight Agreement","Moderate Agreement","Strong Agreement","Moderate Agreement","Slight Agreement","Neither Agreement nor Disagreement","Moderate Agreement","Neither Agreement nor Disagreement","Moderate Agreement","Moderate Agreement","Neither Agreement nor Disagreement","Neither Agreement nor Disagreement"
"73","A1OCP9AVM0ZOND:3Y54SXRO1MRSA5UUV82CHOQUUYUTUS","1",4,1,1,"5","<p style=""font-size:100px""><b>b</b></p><p style=""position: absolute; top: 30px; right: 30px; text-align:right; font-size:50px"""">N = 1</p>","b",0,NA,NA,0,"agree",18,13,14,14,16,"44","Female","I would liked in this task","Neither Agreement nor Disagreement","Slight Agreement","Neither Agreement nor Disagreement","Moderate Agreement","Neither Agreement nor Disagreement","Neither Agreement nor Disagreement","Slight Agreement","Moderate Agreement","Strong Agreement","Moderate Agreement","Slight Agreement","Neither Agreement nor Disagreement","Moderate Agreement","Neither Agreement nor Disagreement","Moderate Agreement","Moderate Agreement","Neither Agreement nor Disagreement","Neither Agreement nor Disagreement"
"74","A1OCP9AVM0ZOND:3Y54SXRO1MRSA5UUV82CHOQUUYUTUS","1",4,2,1,"5","<p style=""font-size:100px""><b>v</b></p><p style=""position: absolute; top: 30px; right: 30px; text-align:right; font-size:50px"""">N = 1</p>","v",0,NA,NA,0,"agree",18,13,14,14,16,"44","Female","I would liked in this task","Neither Agreement nor Disagreement","Slight Agreement","Neither Agreement nor Disagreement","Moderate Agreement","Neither Agreement nor Disagreement","Neither Agreement nor Disagreement","Slight Agreement","Moderate Agreement","Strong Agreement","Moderate Agreement","Slight Agreement","Neither Agreement nor Disagreement","Moderate Agreement","Neither Agreement nor Disagreement","Moderate Agreement","Moderate Agreement","Neither Agreement nor Disagreement","Neither Agreement nor Disagreement"
"75","A1OCP9AVM0ZOND:3Y54SXRO1MRSA5UUV82CHOQUUYUTUS","1",4,3,1,"5","<p style=""font-size:100px""><b>g</b></p><p style=""position: absolute; top: 30px; right: 30px; text-align:right; font-size:50px"""">N = 1</p>","g",0,NA,NA,0,"agree",18,13,14,14,16,"44","Female","I would liked in this task","Neither Agreement nor Disagreement","Slight Agreement","Neither Agreement nor Disagreement","Moderate Agreement","Neither Agreement nor Disagreement","Neither Agreement nor Disagreement","Slight Agreement","Moderate Agreement","Strong Agreement","Moderate Agreement","Slight Agreement","Neither Agreement nor Disagreement","Moderate Agreement","Neither Agreement nor Disagreement","Moderate Agreement","Moderate Agreement","Neither Agreement nor Disagreement","Neither Agreement nor Disagreement"
"76","A1OCP9AVM0ZOND:3Y54SXRO1MRSA5UUV82CHOQUUYUTUS","1",4,4,1,"5","<p style=""font-size:100px""><b>g</b></p><p style=""position: absolute; top: 30px; right: 30px; text-align:right; font-size:50px"""">N = 1</p>","g",0,NA,NA,0,"agree",18,13,14,14,16,"44","Female","I would liked in this task","Neither Agreement nor Disagreement","Slight Agreement","Neither Agreement nor Disagreement","Moderate Agreement","Neither Agreement nor Disagreement","Neither Agreement nor Disagreement","Slight Agreement","Moderate Agreement","Strong Agreement","Moderate Agreement","Slight Agreement","Neither Agreement nor Disagreement","Moderate Agreement","Neither Agreement nor Disagreement","Moderate Agreement","Moderate Agreement","Neither Agreement nor Disagreement","Neither Agreement nor Disagreement"
"77","A1OCP9AVM0ZOND:3Y54SXRO1MRSA5UUV82CHOQUUYUTUS","1",4,5,1,"5","<p style=""font-size:100px""><b>v</b></p><p style=""position: absolute; top: 30px; right: 30px; text-align:right; font-size:50px"""">N = 1</p>","v",0,NA,NA,0,"agree",18,13,14,14,16,"44","Female","I would liked in this task","Neither Agreement nor Disagreement","Slight Agreement","Neither Agreement nor Disagreement","Moderate Agreement","Neither Agreement nor Disagreement","Neither Agreement nor Disagreement","Slight Agreement","Moderate Agreement","Strong Agreement","Moderate Agreement","Slight Agreement","Neither Agreement nor Disagreement","Moderate Agreement","Neither Agreement nor Disagreement","Moderate Agreement","Moderate Agreement","Neither Agreement nor Disagreement","Neither Agreement nor Disagreement"
"78","A1OCP9AVM0ZOND:3Y54SXRO1MRSA5UUV82CHOQUUYUTUS","1",4,6,1,"5","<p style=""font-size:100px""><b>T</b></p><p style=""position: absolute; top: 30px; right: 30px; text-align:right; font-size:50px"""">N = 1</p>","T",0,73,943,1,"agree",18,13,14,14,16,"44","Female","I would liked in this task","Neither Agreement nor Disagreement","Slight Agreement","Neither Agreement nor Disagreement","Moderate Agreement","Neither Agreement nor Disagreement","Neither Agreement nor Disagreement","Slight Agreement","Moderate Agreement","Strong Agreement","Moderate Agreement","Slight Agreement","Neither Agreement nor Disagreement","Moderate Agreement","Neither Agreement nor Disagreement","Moderate Agreement","Moderate Agreement","Neither Agreement nor Disagreement","Neither Agreement nor Disagreement"
"79","A1OCP9AVM0ZOND:3Y54SXRO1MRSA5UUV82CHOQUUYUTUS","1",4,7,1,"5","<p style=""font-size:100px""><b>T</b></p><p style=""position: absolute; top: 30px; right: 30px; text-align:right; font-size:50px"""">N = 1</p>","T",0,NA,NA,0,"agree",18,13,14,14,16,"44","Female","I would liked in this task","Neither Agreement nor Disagreement","Slight Agreement","Neither Agreement nor Disagreement","Moderate Agreement","Neither Agreement nor Disagreement","Neither Agreement nor Disagreement","Slight Agreement","Moderate Agreement","Strong Agreement","Moderate Agreement","Slight Agreement","Neither Agreement nor Disagreement","Moderate Agreement","Neither Agreement nor Disagreement","Moderate Agreement","Moderate Agreement","Neither Agreement nor Disagreement","Neither Agreement nor Disagreement"
"80","A1OCP9AVM0ZOND:3Y54SXRO1MRSA5UUV82CHOQUUYUTUS","1",4,8,1,"5","<p style=""font-size:100px""><b>T</b></p><p style=""position: absolute; top: 30px; right: 30px; text-align:right; font-size:50px"""">N = 1</p>","T",0,NA,NA,0,"agree",18,13,14,14,16,"44","Female","I would liked in this task","Neither Agreement nor Disagreement","Slight Agreement","Neither Agreement nor Disagreement","Moderate Agreement","Neither Agreement nor Disagreement","Neither Agreement nor Disagreement","Slight Agreement","Moderate Agreement","Strong Agreement","Moderate Agreement","Slight Agreement","Neither Agreement nor Disagreement","Moderate Agreement","Neither Agreement nor Disagreement","Moderate Agreement","Moderate Agreement","Neither Agreement nor Disagreement","Neither Agreement nor Disagreement"
"81","A1OCP9AVM0ZOND:3Y54SXRO1MRSA5UUV82CHOQUUYUTUS","1",4,9,1,"5","<p style=""font-size:100px""><b>b</b></p><p style=""position: absolute; top: 30px; right: 30px; text-align:right; font-size:50px"""">N = 1</p>","b",0,73,867,1,"agree",18,13,14,14,16,"44","Female","I would liked in this task","Neither Agreement nor Disagreement","Slight Agreement","Neither Agreement nor Disagreement","Moderate Agreement","Neither Agreement nor Disagreement","Neither Agreement nor Disagreement","Slight Agreement","Moderate Agreement","Strong Agreement","Moderate Agreement","Slight Agreement","Neither Agreement nor Disagreement","Moderate Agreement","Neither Agreement nor Disagreement","Moderate Agreement","Moderate Agreement","Neither Agreement nor Disagreement","Neither Agreement nor Disagreement"
"82","A1OCP9AVM0ZOND:3Y54SXRO1MRSA5UUV82CHOQUUYUTUS","1",4,10,1,"5","<p style=""font-size:100px""><b>v</b></p><p style=""position: absolute; top: 30px; right: 30px; text-align:right; font-size:50px"""">N = 1</p>","v",0,NA,NA,0,"agree",18,13,14,14,16,"44","Female","I would liked in this task","Neither Agreement nor Disagreement","Slight Agreement","Neither Agreement nor Disagreement","Moderate Agreement","Neither Agreement nor Disagreement","Neither Agreement nor Disagreement","Slight Agreement","Moderate Agreement","Strong Agreement","Moderate Agreement","Slight Agreement","Neither Agreement nor Disagreement","Moderate Agreement","Neither Agreement nor Disagreement","Moderate Agreement","Moderate Agreement","Neither Agreement nor Disagreement","Neither Agreement nor Disagreement"
"83","A1OCP9AVM0ZOND:3Y54SXRO1MRSA5UUV82CHOQUUYUTUS","1",4,11,1,"5","<p style=""font-size:100px""><b>t</b></p><p style=""position: absolute; top: 30px; right: 30px; text-align:right; font-size:50px"""">N = 1</p>","t",0,73,653,1,"agree",18,13,14,14,16,"44","Female","I would liked in this task","Neither Agreement nor Disagreement","Slight Agreement","Neither Agreement nor Disagreement","Moderate Agreement","Neither Agreement nor Disagreement","Neither Agreement nor Disagreement","Slight Agreement","Moderate Agreement","Strong Agreement","Moderate Agreement","Slight Agreement","Neither Agreement nor Disagreement","Moderate Agreement","Neither Agreement nor Disagreement","Moderate Agreement","Moderate Agreement","Neither Agreement nor Disagreement","Neither Agreement nor Disagreement"
"84","A1OCP9AVM0ZOND:3Y54SXRO1MRSA5UUV82CHOQUUYUTUS","1",4,12,1,"5","<p style=""font-size:100px""><b>t</b></p><p style=""position: absolute; top: 30px; right: 30px; text-align:right; font-size:50px"""">N = 1</p>","t",0,73,887,1,"agree",18,13,14,14,16,"44","Female","I would liked in this task","Neither Agreement nor Disagreement","Slight Agreement","Neither Agreement nor Disagreement","Moderate Agreement","Neither Agreement nor Disagreement","Neither Agreement nor Disagreement","Slight Agreement","Moderate Agreement","Strong Agreement","Moderate Agreement","Slight Agreement","Neither Agreement nor Disagreement","Moderate Agreement","Neither Agreement nor Disagreement","Moderate Agreement","Moderate Agreement","Neither Agreement nor Disagreement","Neither Agreement nor Disagreement"
"85","A1OCP9AVM0ZOND:3Y54SXRO1MRSA5UUV82CHOQUUYUTUS","1",5,1,3,"50","<p style=""font-size:100px""><b>P</b></p><p style=""position: absolute; top: 30px; right: 30px; text-align:right; font-size:50px"""">N = 3</p>","P",0,NA,NA,0,"agree",16,13,13,13,15,"44","Female","I would liked in this task","Neither Agreement nor Disagreement","Slight Agreement","Neither Agreement nor Disagreement","Moderate Agreement","Neither Agreement nor Disagreement","Neither Agreement nor Disagreement","Slight Agreement","Moderate Agreement","Strong Agreement","Moderate Agreement","Slight Agreement","Neither Agreement nor Disagreement","Moderate Agreement","Neither Agreement nor Disagreement","Moderate Agreement","Moderate Agreement","Neither Agreement nor Disagreement","Neither Agreement nor Disagreement"
"86","A1OCP9AVM0ZOND:3Y54SXRO1MRSA5UUV82CHOQUUYUTUS","1",5,2,3,"50","<p style=""font-size:100px""><b>g</b></p><p style=""position: absolute; top: 30px; right: 30px; text-align:right; font-size:50px"""">N = 3</p>","g",0,73,220,1,"agree",16,13,13,13,15,"44","Female","I would liked in this task","Neither Agreement nor Disagreement","Slight Agreement","Neither Agreement nor Disagreement","Moderate Agreement","Neither Agreement nor Disagreement","Neither Agreement nor Disagreement","Slight Agreement","Moderate Agreement","Strong Agreement","Moderate Agreement","Slight Agreement","Neither Agreement nor Disagreement","Moderate Agreement","Neither Agreement nor Disagreement","Moderate Agreement","Moderate Agreement","Neither Agreement nor Disagreement","Neither Agreement nor Disagreement"
"87","A1OCP9AVM0ZOND:3Y54SXRO1MRSA5UUV82CHOQUUYUTUS","1",5,3,3,"50","<p style=""font-size:100px""><b>T</b></p><p style=""position: absolute; top: 30px; right: 30px; text-align:right; font-size:50px"""">N = 3</p>","T",0,73,692,1,"agree",16,13,13,13,15,"44","Female","I would liked in this task","Neither Agreement nor Disagreement","Slight Agreement","Neither Agreement nor Disagreement","Moderate Agreement","Neither Agreement nor Disagreement","Neither Agreement nor Disagreement","Slight Agreement","Moderate Agreement","Strong Agreement","Moderate Agreement","Slight Agreement","Neither Agreement nor Disagreement","Moderate Agreement","Neither Agreement nor Disagreement","Moderate Agreement","Moderate Agreement","Neither Agreement nor Disagreement","Neither Agreement nor Disagreement"
"88","A1OCP9AVM0ZOND:3Y54SXRO1MRSA5UUV82CHOQUUYUTUS","1",5,4,3,"50","<p style=""font-size:100px""><b>v</b></p><p style=""position: absolute; top: 30px; right: 30px; text-align:right; font-size:50px"""">N = 3</p>","v",0,73,991,1,"agree",16,13,13,13,15,"44","Female","I would liked in this task","Neither Agreement nor Disagreement","Slight Agreement","Neither Agreement nor Disagreement","Moderate Agreement","Neither Agreement nor Disagreement","Neither Agreement nor Disagreement","Slight Agreement","Moderate Agreement","Strong Agreement","Moderate Agreement","Slight Agreement","Neither Agreement nor Disagreement","Moderate Agreement","Neither Agreement nor Disagreement","Moderate Agreement","Moderate Agreement","Neither Agreement nor Disagreement","Neither Agreement nor Disagreement"
"89","A1OCP9AVM0ZOND:3Y54SXRO1MRSA5UUV82CHOQUUYUTUS","1",5,5,3,"50","<p style=""font-size:100px""><b>g</b></p><p style=""position: absolute; top: 30px; right: 30px; text-align:right; font-size:50px"""">N = 3</p>","g",0,NA,NA,0,"agree",16,13,13,13,15,"44","Female","I would liked in this task","Neither Agreement nor Disagreement","Slight Agreement","Neither Agreement nor Disagreement","Moderate Agreement","Neither Agreement nor Disagreement","Neither Agreement nor Disagreement","Slight Agreement","Moderate Agreement","Strong Agreement","Moderate Agreement","Slight Agreement","Neither Agreement nor Disagreement","Moderate Agreement","Neither Agreement nor Disagreement","Moderate Agreement","Moderate Agreement","Neither Agreement nor Disagreement","Neither Agreement nor Disagreement"
"90","A1OCP9AVM0ZOND:3Y54SXRO1MRSA5UUV82CHOQUUYUTUS","1",5,6,3,"50","<p style=""font-size:100px""><b>T</b></p><p style=""position: absolute; top: 30px; right: 30px; text-align:right; font-size:50px"""">N = 3</p>","T",0,73,929,1,"agree",16,13,13,13,15,"44","Female","I would liked in this task","Neither Agreement nor Disagreement","Slight Agreement","Neither Agreement nor Disagreement","Moderate Agreement","Neither Agreement nor Disagreement","Neither Agreement nor Disagreement","Slight Agreement","Moderate Agreement","Strong Agreement","Moderate Agreement","Slight Agreement","Neither Agreement nor Disagreement","Moderate Agreement","Neither Agreement nor Disagreement","Moderate Agreement","Moderate Agreement","Neither Agreement nor Disagreement","Neither Agreement nor Disagreement"
"91","A1OCP9AVM0ZOND:3Y54SXRO1MRSA5UUV82CHOQUUYUTUS","1",5,7,3,"50","<p style=""font-size:100px""><b>D</b></p><p style=""position: absolute; top: 30px; right: 30px; text-align:right; font-size:50px"""">N = 3</p>","D",0,73,953,1,"agree",16,13,13,13,15,"44","Female","I would liked in this task","Neither Agreement nor Disagreement","Slight Agreement","Neither Agreement nor Disagreement","Moderate Agreement","Neither Agreement nor Disagreement","Neither Agreement nor Disagreement","Slight Agreement","Moderate Agreement","Strong Agreement","Moderate Agreement","Slight Agreement","Neither Agreement nor Disagreement","Moderate Agreement","Neither Agreement nor Disagreement","Moderate Agreement","Moderate Agreement","Neither Agreement nor Disagreement","Neither Agreement nor Disagreement"
"92","A1OCP9AVM0ZOND:3Y54SXRO1MRSA5UUV82CHOQUUYUTUS","1",5,8,3,"50","<p style=""font-size:100px""><b>g</b></p><p style=""position: absolute; top: 30px; right: 30px; text-align:right; font-size:50px"""">N = 3</p>","g",0,69,883,0,"agree",16,13,13,13,15,"44","Female","I would liked in this task","Neither Agreement nor Disagreement","Slight Agreement","Neither Agreement nor Disagreement","Moderate Agreement","Neither Agreement nor Disagreement","Neither Agreement nor Disagreement","Slight Agreement","Moderate Agreement","Strong Agreement","Moderate Agreement","Slight Agreement","Neither Agreement nor Disagreement","Moderate Agreement","Neither Agreement nor Disagreement","Moderate Agreement","Moderate Agreement","Neither Agreement nor Disagreement","Neither Agreement nor Disagreement"
"93","A1OCP9AVM0ZOND:3Y54SXRO1MRSA5UUV82CHOQUUYUTUS","1",5,9,3,"50","<p style=""font-size:100px""><b>p</b></p><p style=""position: absolute; top: 30px; right: 30px; text-align:right; font-size:50px"""">N = 3</p>","p",0,73,962,1,"agree",16,13,13,13,15,"44","Female","I would liked in this task","Neither Agreement nor Disagreement","Slight Agreement","Neither Agreement nor Disagreement","Moderate Agreement","Neither Agreement nor Disagreement","Neither Agreement nor Disagreement","Slight Agreement","Moderate Agreement","Strong Agreement","Moderate Agreement","Slight Agreement","Neither Agreement nor Disagreement","Moderate Agreement","Neither Agreement nor Disagreement","Moderate Agreement","Moderate Agreement","Neither Agreement nor Disagreement","Neither Agreement nor Disagreement"
"94","A1OCP9AVM0ZOND:3Y54SXRO1MRSA5UUV82CHOQUUYUTUS","1",5,10,3,"50","<p style=""font-size:100px""><b>D</b></p><p style=""position: absolute; top: 30px; right: 30px; text-align:right; font-size:50px"""">N = 3</p>","D",0,NA,NA,0,"agree",16,13,13,13,15,"44","Female","I would liked in this task","Neither Agreement nor Disagreement","Slight Agreement","Neither Agreement nor Disagreement","Moderate Agreement","Neither Agreement nor Disagreement","Neither Agreement nor Disagreement","Slight Agreement","Moderate Agreement","Strong Agreement","Moderate Agreement","Slight Agreement","Neither Agreement nor Disagreement","Moderate Agreement","Neither Agreement nor Disagreement","Moderate Agreement","Moderate Agreement","Neither Agreement nor Disagreement","Neither Agreement nor Disagreement"
"95","A1OCP9AVM0ZOND:3Y54SXRO1MRSA5UUV82CHOQUUYUTUS","1",5,11,3,"50","<p style=""font-size:100px""><b>P</b></p><p style=""position: absolute; top: 30px; right: 30px; text-align:right; font-size:50px"""">N = 3</p>","P",0,NA,NA,0,"agree",16,13,13,13,15,"44","Female","I would liked in this task","Neither Agreement nor Disagreement","Slight Agreement","Neither Agreement nor Disagreement","Moderate Agreement","Neither Agreement nor Disagreement","Neither Agreement nor Disagreement","Slight Agreement","Moderate Agreement","Strong Agreement","Moderate Agreement","Slight Agreement","Neither Agreement nor Disagreement","Moderate Agreement","Neither Agreement nor Disagreement","Moderate Agreement","Moderate Agreement","Neither Agreement nor Disagreement","Neither Agreement nor Disagreement"
"96","A1OCP9AVM0ZOND:3Y54SXRO1MRSA5UUV82CHOQUUYUTUS","1",5,12,3,"50","<p style=""font-size:100px""><b>D</b></p><p style=""position: absolute; top: 30px; right: 30px; text-align:right; font-size:50px"""">N = 3</p>","D",0,69,873,0,"agree",16,13,13,13,15,"44","Female","I would liked in this task","Neither Agreement nor Disagreement","Slight Agreement","Neither Agreement nor Disagreement","Moderate Agreement","Neither Agreement nor Disagreement","Neither Agreement nor Disagreement","Slight Agreement","Moderate Agreement","Strong Agreement","Moderate Agreement","Slight Agreement","Neither Agreement nor Disagreement","Moderate Agreement","Neither Agreement nor Disagreement","Moderate Agreement","Moderate Agreement","Neither Agreement nor Disagreement","Neither Agreement nor Disagreement"
"97","A1OCP9AVM0ZOND:3Y54SXRO1MRSA5UUV82CHOQUUYUTUS","1",6,1,2,"5","<p style=""font-size:100px""><b>t</b></p><p style=""position: absolute; top: 30px; right: 30px; text-align:right; font-size:50px"""">N = 2</p>","t",0,73,470,1,"agree",16,13,14,13,15,"44","Female","I would liked in this task","Neither Agreement nor Disagreement","Slight Agreement","Neither Agreement nor Disagreement","Moderate Agreement","Neither Agreement nor Disagreement","Neither Agreement nor Disagreement","Slight Agreement","Moderate Agreement","Strong Agreement","Moderate Agreement","Slight Agreement","Neither Agreement nor Disagreement","Moderate Agreement","Neither Agreement nor Disagreement","Moderate Agreement","Moderate Agreement","Neither Agreement nor Disagreement","Neither Agreement nor Disagreement"
"98","A1OCP9AVM0ZOND:3Y54SXRO1MRSA5UUV82CHOQUUYUTUS","1",6,2,2,"5","<p style=""font-size:100px""><b>g</b></p><p style=""position: absolute; top: 30px; right: 30px; text-align:right; font-size:50px"""">N = 2</p>","g",0,73,726,1,"agree",16,13,14,13,15,"44","Female","I would liked in this task","Neither Agreement nor Disagreement","Slight Agreement","Neither Agreement nor Disagreement","Moderate Agreement","Neither Agreement nor Disagreement","Neither Agreement nor Disagreement","Slight Agreement","Moderate Agreement","Strong Agreement","Moderate Agreement","Slight Agreement","Neither Agreement nor Disagreement","Moderate Agreement","Neither Agreement nor Disagreement","Moderate Agreement","Moderate Agreement","Neither Agreement nor Disagreement","Neither Agreement nor Disagreement"
"99","A1OCP9AVM0ZOND:3Y54SXRO1MRSA5UUV82CHOQUUYUTUS","1",6,3,2,"5","<p style=""font-size:100px""><b>D</b></p><p style=""position: absolute; top: 30px; right: 30px; text-align:right; font-size:50px"""">N = 2</p>","D",0,NA,NA,0,"agree",16,13,14,13,15,"44","Female","I would liked in this task","Neither Agreement nor Disagreement","Slight Agreement","Neither Agreement nor Disagreement","Moderate Agreement","Neither Agreement nor Disagreement","Neither Agreement nor Disagreement","Slight Agreement","Moderate Agreement","Strong Agreement","Moderate Agreement","Slight Agreement","Neither Agreement nor Disagreement","Moderate Agreement","Neither Agreement nor Disagreement","Moderate Agreement","Moderate Agreement","Neither Agreement nor Disagreement","Neither Agreement nor Disagreement"
"100","A1OCP9AVM0ZOND:3Y54SXRO1MRSA5UUV82CHOQUUYUTUS","1",6,4,2,"5","<p style=""font-size:100px""><b>g</b></p><p style=""position: absolute; top: 30px; right: 30px; text-align:right; font-size:50px"""">N = 2</p>","g",0,69,905,0,"agree",16,13,14,13,15,"44","Female","I would liked in this task","Neither Agreement nor Disagreement","Slight Agreement","Neither Agreement nor Disagreement","Moderate Agreement","Neither Agreement nor Disagreement","Neither Agreement nor Disagreement","Slight Agreement","Moderate Agreement","Strong Agreement","Moderate Agreement","Slight Agreement","Neither Agreement nor Disagreement","Moderate Agreement","Neither Agreement nor Disagreement","Moderate Agreement","Moderate Agreement","Neither Agreement nor Disagreement","Neither Agreement nor Disagreement"
"101","A1OCP9AVM0ZOND:3Y54SXRO1MRSA5UUV82CHOQUUYUTUS","1",6,5,2,"5","<p style=""font-size:100px""><b>D</b></p><p style=""position: absolute; top: 30px; right: 30px; text-align:right; font-size:50px"""">N = 2</p>","D",0,73,635,1,"agree",16,13,14,13,15,"44","Female","I would liked in this task","Neither Agreement nor Disagreement","Slight Agreement","Neither Agreement nor Disagreement","Moderate Agreement","Neither Agreement nor Disagreement","Neither Agreement nor Disagreement","Slight Agreement","Moderate Agreement","Strong Agreement","Moderate Agreement","Slight Agreement","Neither Agreement nor Disagreement","Moderate Agreement","Neither Agreement nor Disagreement","Moderate Agreement","Moderate Agreement","Neither Agreement nor Disagreement","Neither Agreement nor Disagreement"
"102","A1OCP9AVM0ZOND:3Y54SXRO1MRSA5UUV82CHOQUUYUTUS","1",6,6,2,"5","<p style=""font-size:100px""><b>b</b></p><p style=""position: absolute; top: 30px; right: 30px; text-align:right; font-size:50px"""">N = 2</p>","b",0,73,676,1,"agree",16,13,14,13,15,"44","Female","I would liked in this task","Neither Agreement nor Disagreement","Slight Agreement","Neither Agreement nor Disagreement","Moderate Agreement","Neither Agreement nor Disagreement","Neither Agreement nor Disagreement","Slight Agreement","Moderate Agreement","Strong Agreement","Moderate Agreement","Slight Agreement","Neither Agreement nor Disagreement","Moderate Agreement","Neither Agreement nor Disagreement","Moderate Agreement","Moderate Agreement","Neither Agreement nor Disagreement","Neither Agreement nor Disagreement"
"103","A1OCP9AVM0ZOND:3Y54SXRO1MRSA5UUV82CHOQUUYUTUS","1",6,7,2,"5","<p style=""font-size:100px""><b>b</b></p><p style=""position: absolute; top: 30px; right: 30px; text-align:right; font-size:50px"""">N = 2</p>","b",0,NA,NA,0,"agree",16,13,14,13,15,"44","Female","I would liked in this task","Neither Agreement nor Disagreement","Slight Agreement","Neither Agreement nor Disagreement","Moderate Agreement","Neither Agreement nor Disagreement","Neither Agreement nor Disagreement","Slight Agreement","Moderate Agreement","Strong Agreement","Moderate Agreement","Slight Agreement","Neither Agreement nor Disagreement","Moderate Agreement","Neither Agreement nor Disagreement","Moderate Agreement","Moderate Agreement","Neither Agreement nor Disagreement","Neither Agreement nor Disagreement"
"104","A1OCP9AVM0ZOND:3Y54SXRO1MRSA5UUV82CHOQUUYUTUS","1",6,8,2,"5","<p style=""font-size:100px""><b>b</b></p><p style=""position: absolute; top: 30px; right: 30px; text-align:right; font-size:50px"""">N = 2</p>","b",0,NA,NA,0,"agree",16,13,14,13,15,"44","Female","I would liked in this task","Neither Agreement nor Disagreement","Slight Agreement","Neither Agreement nor Disagreement","Moderate Agreement","Neither Agreement nor Disagreement","Neither Agreement nor Disagreement","Slight Agreement","Moderate Agreement","Strong Agreement","Moderate Agreement","Slight Agreement","Neither Agreement nor Disagreement","Moderate Agreement","Neither Agreement nor Disagreement","Moderate Agreement","Moderate Agreement","Neither Agreement nor Disagreement","Neither Agreement nor Disagreement"
"105","A1OCP9AVM0ZOND:3Y54SXRO1MRSA5UUV82CHOQUUYUTUS","1",6,9,2,"5","<p style=""font-size:100px""><b>t</b></p><p style=""position: absolute; top: 30px; right: 30px; text-align:right; font-size:50px"""">N = 2</p>","t",0,73,617,1,"agree",16,13,14,13,15,"44","Female","I would liked in this task","Neither Agreement nor Disagreement","Slight Agreement","Neither Agreement nor Disagreement","Moderate Agreement","Neither Agreement nor Disagreement","Neither Agreement nor Disagreement","Slight Agreement","Moderate Agreement","Strong Agreement","Moderate Agreement","Slight Agreement","Neither Agreement nor Disagreement","Moderate Agreement","Neither Agreement nor Disagreement","Moderate Agreement","Moderate Agreement","Neither Agreement nor Disagreement","Neither Agreement nor Disagreement"
"106","A1OCP9AVM0ZOND:3Y54SXRO1MRSA5UUV82CHOQUUYUTUS","1",6,10,2,"5","<p style=""font-size:100px""><b>g</b></p><p style=""position: absolute; top: 30px; right: 30px; text-align:right; font-size:50px"""">N = 2</p>","g",0,NA,NA,0,"agree",16,13,14,13,15,"44","Female","I would liked in this task","Neither Agreement nor Disagreement","Slight Agreement","Neither Agreement nor Disagreement","Moderate Agreement","Neither Agreement nor Disagreement","Neither Agreement nor Disagreement","Slight Agreement","Moderate Agreement","Strong Agreement","Moderate Agreement","Slight Agreement","Neither Agreement nor Disagreement","Moderate Agreement","Neither Agreement nor Disagreement","Moderate Agreement","Moderate Agreement","Neither Agreement nor Disagreement","Neither Agreement nor Disagreement"
"107","A1OCP9AVM0ZOND:3Y54SXRO1MRSA5UUV82CHOQUUYUTUS","1",6,11,2,"5","<p style=""font-size:100px""><b>t</b></p><p style=""position: absolute; top: 30px; right: 30px; text-align:right; font-size:50px"""">N = 2</p>","t",0,73,820,1,"agree",16,13,14,13,15,"44","Female","I would liked in this task","Neither Agreement nor Disagreement","Slight Agreement","Neither Agreement nor Disagreement","Moderate Agreement","Neither Agreement nor Disagreement","Neither Agreement nor Disagreement","Slight Agreement","Moderate Agreement","Strong Agreement","Moderate Agreement","Slight Agreement","Neither Agreement nor Disagreement","Moderate Agreement","Neither Agreement nor Disagreement","Moderate Agreement","Moderate Agreement","Neither Agreement nor Disagreement","Neither Agreement nor Disagreement"
"108","A1OCP9AVM0ZOND:3Y54SXRO1MRSA5UUV82CHOQUUYUTUS","1",6,12,2,"5","<p style=""font-size:100px""><b>V</b></p><p style=""position: absolute; top: 30px; right: 30px; text-align:right; font-size:50px"""">N = 2</p>","V",0,69,916,0,"agree",16,13,14,13,15,"44","Female","I would liked in this task","Neither Agreement nor Disagreement","Slight Agreement","Neither Agreement nor Disagreement","Moderate Agreement","Neither Agreement nor Disagreement","Neither Agreement nor Disagreement","Slight Agreement","Moderate Agreement","Strong Agreement","Moderate Agreement","Slight Agreement","Neither Agreement nor Disagreement","Moderate Agreement","Neither Agreement nor Disagreement","Moderate Agreement","Moderate Agreement","Neither Agreement nor Disagreement","Neither Agreement nor Disagreement"
"109","A1OCP9AVM0ZOND:3Y54SXRO1MRSA5UUV82CHOQUUYUTUS","2",7,1,3,"5","<p style=""font-size:100px""><b>B</b></p><p style=""position: absolute; top: 30px; right: 30px; text-align:right; font-size:50px"""">N = 3</p>","B",0,73,789,1,"agree",15,12,13,13,14,"44","Female","I would liked in this task","Neither Agreement nor Disagreement","Slight Agreement","Neither Agreement nor Disagreement","Moderate Agreement","Neither Agreement nor Disagreement","Neither Agreement nor Disagreement","Slight Agreement","Moderate Agreement","Strong Agreement","Moderate Agreement","Slight Agreement","Neither Agreement nor Disagreement","Moderate Agreement","Neither Agreement nor Disagreement","Moderate Agreement","Moderate Agreement","Neither Agreement nor Disagreement","Neither Agreement nor Disagreement"
"110","A1OCP9AVM0ZOND:3Y54SXRO1MRSA5UUV82CHOQUUYUTUS","2",7,2,3,"5","<p style=""font-size:100px""><b>T</b></p><p style=""position: absolute; top: 30px; right: 30px; text-align:right; font-size:50px"""">N = 3</p>","T",0,73,845,1,"agree",15,12,13,13,14,"44","Female","I would liked in this task","Neither Agreement nor Disagreement","Slight Agreement","Neither Agreement nor Disagreement","Moderate Agreement","Neither Agreement nor Disagreement","Neither Agreement nor Disagreement","Slight Agreement","Moderate Agreement","Strong Agreement","Moderate Agreement","Slight Agreement","Neither Agreement nor Disagreement","Moderate Agreement","Neither Agreement nor Disagreement","Moderate Agreement","Moderate Agreement","Neither Agreement nor Disagreement","Neither Agreement nor Disagreement"
"111","A1OCP9AVM0ZOND:3Y54SXRO1MRSA5UUV82CHOQUUYUTUS","2",7,3,3,"5","<p style=""font-size:100px""><b>v</b></p><p style=""position: absolute; top: 30px; right: 30px; text-align:right; font-size:50px"""">N = 3</p>","v",0,73,599,1,"agree",15,12,13,13,14,"44","Female","I would liked in this task","Neither Agreement nor Disagreement","Slight Agreement","Neither Agreement nor Disagreement","Moderate Agreement","Neither Agreement nor Disagreement","Neither Agreement nor Disagreement","Slight Agreement","Moderate Agreement","Strong Agreement","Moderate Agreement","Slight Agreement","Neither Agreement nor Disagreement","Moderate Agreement","Neither Agreement nor Disagreement","Moderate Agreement","Moderate Agreement","Neither Agreement nor Disagreement","Neither Agreement nor Disagreement"
"112","A1OCP9AVM0ZOND:3Y54SXRO1MRSA5UUV82CHOQUUYUTUS","2",7,4,3,"5","<p style=""font-size:100px""><b>D</b></p><p style=""position: absolute; top: 30px; right: 30px; text-align:right; font-size:50px"""">N = 3</p>","D",0,73,827,1,"agree",15,12,13,13,14,"44","Female","I would liked in this task","Neither Agreement nor Disagreement","Slight Agreement","Neither Agreement nor Disagreement","Moderate Agreement","Neither Agreement nor Disagreement","Neither Agreement nor Disagreement","Slight Agreement","Moderate Agreement","Strong Agreement","Moderate Agreement","Slight Agreement","Neither Agreement nor Disagreement","Moderate Agreement","Neither Agreement nor Disagreement","Moderate Agreement","Moderate Agreement","Neither Agreement nor Disagreement","Neither Agreement nor Disagreement"
"113","A1OCP9AVM0ZOND:3Y54SXRO1MRSA5UUV82CHOQUUYUTUS","2",7,5,3,"5","<p style=""font-size:100px""><b>p</b></p><p style=""position: absolute; top: 30px; right: 30px; text-align:right; font-size:50px"""">N = 3</p>","p",0,73,980,1,"agree",15,12,13,13,14,"44","Female","I would liked in this task","Neither Agreement nor Disagreement","Slight Agreement","Neither Agreement nor Disagreement","Moderate Agreement","Neither Agreement nor Disagreement","Neither Agreement nor Disagreement","Slight Agreement","Moderate Agreement","Strong Agreement","Moderate Agreement","Slight Agreement","Neither Agreement nor Disagreement","Moderate Agreement","Neither Agreement nor Disagreement","Moderate Agreement","Moderate Agreement","Neither Agreement nor Disagreement","Neither Agreement nor Disagreement"
"114","A1OCP9AVM0ZOND:3Y54SXRO1MRSA5UUV82CHOQUUYUTUS","2",7,6,3,"5","<p style=""font-size:100px""><b>v</b></p><p style=""position: absolute; top: 30px; right: 30px; text-align:right; font-size:50px"""">N = 3</p>","v",0,NA,NA,0,"agree",15,12,13,13,14,"44","Female","I would liked in this task","Neither Agreement nor Disagreement","Slight Agreement","Neither Agreement nor Disagreement","Moderate Agreement","Neither Agreement nor Disagreement","Neither Agreement nor Disagreement","Slight Agreement","Moderate Agreement","Strong Agreement","Moderate Agreement","Slight Agreement","Neither Agreement nor Disagreement","Moderate Agreement","Neither Agreement nor Disagreement","Moderate Agreement","Moderate Agreement","Neither Agreement nor Disagreement","Neither Agreement nor Disagreement"
"115","A1OCP9AVM0ZOND:3Y54SXRO1MRSA5UUV82CHOQUUYUTUS","2",7,7,3,"5","<p style=""font-size:100px""><b>D</b></p><p style=""position: absolute; top: 30px; right: 30px; text-align:right; font-size:50px"""">N = 3</p>","D",0,NA,NA,0,"agree",15,12,13,13,14,"44","Female","I would liked in this task","Neither Agreement nor Disagreement","Slight Agreement","Neither Agreement nor Disagreement","Moderate Agreement","Neither Agreement nor Disagreement","Neither Agreement nor Disagreement","Slight Agreement","Moderate Agreement","Strong Agreement","Moderate Agreement","Slight Agreement","Neither Agreement nor Disagreement","Moderate Agreement","Neither Agreement nor Disagreement","Moderate Agreement","Moderate Agreement","Neither Agreement nor Disagreement","Neither Agreement nor Disagreement"
"116","A1OCP9AVM0ZOND:3Y54SXRO1MRSA5UUV82CHOQUUYUTUS","2",7,8,3,"5","<p style=""font-size:100px""><b>d</b></p><p style=""position: absolute; top: 30px; right: 30px; text-align:right; font-size:50px"""">N = 3</p>","d",0,73,612,1,"agree",15,12,13,13,14,"44","Female","I would liked in this task","Neither Agreement nor Disagreement","Slight Agreement","Neither Agreement nor Disagreement","Moderate Agreement","Neither Agreement nor Disagreement","Neither Agreement nor Disagreement","Slight Agreement","Moderate Agreement","Strong Agreement","Moderate Agreement","Slight Agreement","Neither Agreement nor Disagreement","Moderate Agreement","Neither Agreement nor Disagreement","Moderate Agreement","Moderate Agreement","Neither Agreement nor Disagreement","Neither Agreement nor Disagreement"
"117","A1OCP9AVM0ZOND:3Y54SXRO1MRSA5UUV82CHOQUUYUTUS","2",7,9,3,"5","<p style=""font-size:100px""><b>v</b></p><p style=""position: absolute; top: 30px; right: 30px; text-align:right; font-size:50px"""">N = 3</p>","v",0,NA,NA,0,"agree",15,12,13,13,14,"44","Female","I would liked in this task","Neither Agreement nor Disagreement","Slight Agreement","Neither Agreement nor Disagreement","Moderate Agreement","Neither Agreement nor Disagreement","Neither Agreement nor Disagreement","Slight Agreement","Moderate Agreement","Strong Agreement","Moderate Agreement","Slight Agreement","Neither Agreement nor Disagreement","Moderate Agreement","Neither Agreement nor Disagreement","Moderate Agreement","Moderate Agreement","Neither Agreement nor Disagreement","Neither Agreement nor Disagreement"
"118","A1OCP9AVM0ZOND:3Y54SXRO1MRSA5UUV82CHOQUUYUTUS","2",7,10,3,"5","<p style=""font-size:100px""><b>v</b></p><p style=""position: absolute; top: 30px; right: 30px; text-align:right; font-size:50px"""">N = 3</p>","v",0,NA,NA,0,"agree",15,12,13,13,14,"44","Female","I would liked in this task","Neither Agreement nor Disagreement","Slight Agreement","Neither Agreement nor Disagreement","Moderate Agreement","Neither Agreement nor Disagreement","Neither Agreement nor Disagreement","Slight Agreement","Moderate Agreement","Strong Agreement","Moderate Agreement","Slight Agreement","Neither Agreement nor Disagreement","Moderate Agreement","Neither Agreement nor Disagreement","Moderate Agreement","Moderate Agreement","Neither Agreement nor Disagreement","Neither Agreement nor Disagreement"
"119","A1OCP9AVM0ZOND:3Y54SXRO1MRSA5UUV82CHOQUUYUTUS","2",7,11,3,"5","<p style=""font-size:100px""><b>T</b></p><p style=""position: absolute; top: 30px; right: 30px; text-align:right; font-size:50px"""">N = 3</p>","T",0,NA,NA,0,"agree",15,12,13,13,14,"44","Female","I would liked in this task","Neither Agreement nor Disagreement","Slight Agreement","Neither Agreement nor Disagreement","Moderate Agreement","Neither Agreement nor Disagreement","Neither Agreement nor Disagreement","Slight Agreement","Moderate Agreement","Strong Agreement","Moderate Agreement","Slight Agreement","Neither Agreement nor Disagreement","Moderate Agreement","Neither Agreement nor Disagreement","Moderate Agreement","Moderate Agreement","Neither Agreement nor Disagreement","Neither Agreement nor Disagreement"
"120","A1OCP9AVM0ZOND:3Y54SXRO1MRSA5UUV82CHOQUUYUTUS","2",7,12,3,"5","<p style=""font-size:100px""><b>v</b></p><p style=""position: absolute; top: 30px; right: 30px; text-align:right; font-size:50px"""">N = 3</p>","v",0,NA,NA,0,"agree",15,12,13,13,14,"44","Female","I would liked in this task","Neither Agreement nor Disagreement","Slight Agreement","Neither Agreement nor Disagreement","Moderate Agreement","Neither Agreement nor Disagreement","Neither Agreement nor Disagreement","Slight Agreement","Moderate Agreement","Strong Agreement","Moderate Agreement","Slight Agreement","Neither Agreement nor Disagreement","Moderate Agreement","Neither Agreement nor Disagreement","Moderate Agreement","Moderate Agreement","Neither Agreement nor Disagreement","Neither Agreement nor Disagreement"
"121","A1OCP9AVM0ZOND:3Y54SXRO1MRSA5UUV82CHOQUUYUTUS","2",8,1,2,"50","<p style=""font-size:100px""><b>g</b></p><p style=""position: absolute; top: 30px; right: 30px; text-align:right; font-size:50px"""">N = 2</p>","g",0,73,870,1,"agree",17,12,12,13,17,"44","Female","I would liked in this task","Neither Agreement nor Disagreement","Slight Agreement","Neither Agreement nor Disagreement","Moderate Agreement","Neither Agreement nor Disagreement","Neither Agreement nor Disagreement","Slight Agreement","Moderate Agreement","Strong Agreement","Moderate Agreement","Slight Agreement","Neither Agreement nor Disagreement","Moderate Agreement","Neither Agreement nor Disagreement","Moderate Agreement","Moderate Agreement","Neither Agreement nor Disagreement","Neither Agreement nor Disagreement"
"122","A1OCP9AVM0ZOND:3Y54SXRO1MRSA5UUV82CHOQUUYUTUS","2",8,2,2,"50","<p style=""font-size:100px""><b>D</b></p><p style=""position: absolute; top: 30px; right: 30px; text-align:right; font-size:50px"""">N = 2</p>","D",0,73,584,1,"agree",17,12,12,13,17,"44","Female","I would liked in this task","Neither Agreement nor Disagreement","Slight Agreement","Neither Agreement nor Disagreement","Moderate Agreement","Neither Agreement nor Disagreement","Neither Agreement nor Disagreement","Slight Agreement","Moderate Agreement","Strong Agreement","Moderate Agreement","Slight Agreement","Neither Agreement nor Disagreement","Moderate Agreement","Neither Agreement nor Disagreement","Moderate Agreement","Moderate Agreement","Neither Agreement nor Disagreement","Neither Agreement nor Disagreement"
"123","A1OCP9AVM0ZOND:3Y54SXRO1MRSA5UUV82CHOQUUYUTUS","2",8,3,2,"50","<p style=""font-size:100px""><b>p</b></p><p style=""position: absolute; top: 30px; right: 30px; text-align:right; font-size:50px"""">N = 2</p>","p",0,73,709,1,"agree",17,12,12,13,17,"44","Female","I would liked in this task","Neither Agreement nor Disagreement","Slight Agreement","Neither Agreement nor Disagreement","Moderate Agreement","Neither Agreement nor Disagreement","Neither Agreement nor Disagreement","Slight Agreement","Moderate Agreement","Strong Agreement","Moderate Agreement","Slight Agreement","Neither Agreement nor Disagreement","Moderate Agreement","Neither Agreement nor Disagreement","Moderate Agreement","Moderate Agreement","Neither Agreement nor Disagreement","Neither Agreement nor Disagreement"
"124","A1OCP9AVM0ZOND:3Y54SXRO1MRSA5UUV82CHOQUUYUTUS","2",8,4,2,"50","<p style=""font-size:100px""><b>D</b></p><p style=""position: absolute; top: 30px; right: 30px; text-align:right; font-size:50px"""">N = 2</p>","D",0,NA,NA,0,"agree",17,12,12,13,17,"44","Female","I would liked in this task","Neither Agreement nor Disagreement","Slight Agreement","Neither Agreement nor Disagreement","Moderate Agreement","Neither Agreement nor Disagreement","Neither Agreement nor Disagreement","Slight Agreement","Moderate Agreement","Strong Agreement","Moderate Agreement","Slight Agreement","Neither Agreement nor Disagreement","Moderate Agreement","Neither Agreement nor Disagreement","Moderate Agreement","Moderate Agreement","Neither Agreement nor Disagreement","Neither Agreement nor Disagreement"
"125","A1OCP9AVM0ZOND:3Y54SXRO1MRSA5UUV82CHOQUUYUTUS","2",8,5,2,"50","<p style=""font-size:100px""><b>p</b></p><p style=""position: absolute; top: 30px; right: 30px; text-align:right; font-size:50px"""">N = 2</p>","p",0,69,16,0,"agree",17,12,12,13,17,"44","Female","I would liked in this task","Neither Agreement nor Disagreement","Slight Agreement","Neither Agreement nor Disagreement","Moderate Agreement","Neither Agreement nor Disagreement","Neither Agreement nor Disagreement","Slight Agreement","Moderate Agreement","Strong Agreement","Moderate Agreement","Slight Agreement","Neither Agreement nor Disagreement","Moderate Agreement","Neither Agreement nor Disagreement","Moderate Agreement","Moderate Agreement","Neither Agreement nor Disagreement","Neither Agreement nor Disagreement"
