"","subject","run","block","trial","N","reward","stimulus","cue","isTarget","key_press","rt","acc","debrief","performance","frustration","demand","temporal","effort","age","gender","comments","nfc1","nfc2","nfc3","nfc4","nfc5","nfc6","nfc7","nfc8","nfc9","nfc10","nfc11","nfc12","nfc13","nfc14","nfc15","nfc16","nfc17","nfc18"
"1","A2FJMUOKON4OCQ:3U8YCDAGXQMZ23QMGXUXNCR0U2RQ08","practice",1,1,1,"NA","<p style=""font-size:100px""><b>P</b></p><p style=""position: absolute; top: 30px; right: 30px; text-align:right; font-size:50px"""">N = 1</p>","P",0,69,1532,0,"agree",13,18,16,14,17,"40","male","The instructions are very clear.","Slight Disagreement","Slight Agreement","Slight Agreement","Neither Agreement nor Disagreement","Moderate Agreement","Strong Agreement","Neither Agreement nor Disagreement","Moderate Agreement","Slight Agreement","Moderate Agreement","Slight Disagreement","Neither Agreement nor Disagreement","Slight Agreement","Moderate Agreement","Slight Agreement","Neither Agreement nor Disagreement","Slight Agreement","Moderate Agreement"
"2","A2FJMUOKON4OCQ:3U8YCDAGXQMZ23QMGXUXNCR0U2RQ08","practice",1,2,1,"NA","<p style=""font-size:100px""><b>G</b></p><p style=""position: absolute; top: 30px; right: 30px; text-align:right; font-size:50px"""">N = 1</p>","G",0,73,1019,1,"agree",13,18,16,14,17,"40","male","The instructions are very clear.","Slight Disagreement","Slight Agreement","Slight Agreement","Neither Agreement nor Disagreement","Moderate Agreement","Strong Agreement","Neither Agreement nor Disagreement","Moderate Agreement","Slight Agreement","Moderate Agreement","Slight Disagreement","Neither Agreement nor Disagreement","Slight Agreement","Moderate Agreement","Slight Agreement","Neither Agreement nor Disagreement","Slight Agreement","Moderate Agreement"
"3","A2FJMUOKON4OCQ:3U8YCDAGXQMZ23QMGXUXNCR0U2RQ08","practice",1,3,1,"NA","<p style=""font-size:100px""><b>p</b></p><p style=""position: absolute; top: 30px; right: 30px; text-align:right; font-size:50px"""">N = 1</p>","p",0,73,1120,1,"agree",13,18,16,14,17,"40","male","The instructions are very clear.","Slight Disagreement","Slight Agreement","Slight Agreement","Neither Agreement nor Disagreement","Moderate Agreement","Strong Agreement","Neither Agreement nor Disagreement","Moderate Agreement","Slight Agreement","Moderate Agreement","Slight Disagreement","Neither Agreement nor Disagreement","Slight Agreement","Moderate Agreement","Slight Agreement","Neither Agreement nor Disagreement","Slight Agreement","Moderate Agreement"
"4","A2FJMUOKON4OCQ:3U8YCDAGXQMZ23QMGXUXNCR0U2RQ08","practice",1,4,1,"NA","<p style=""font-size:100px""><b>B</b></p><p style=""position: absolute; top: 30px; right: 30px; text-align:right; font-size:50px"""">N = 1</p>","B",0,73,1149,1,"agree",13,18,16,14,17,"40","male","The instructions are very clear.","Slight Disagreement","Slight Agreement","Slight Agreement","Neither Agreement nor Disagreement","Moderate Agreement","Strong Agreement","Neither Agreement nor Disagreement","Moderate Agreement","Slight Agreement","Moderate Agreement","Slight Disagreement","Neither Agreement nor Disagreement","Slight Agreement","Moderate Agreement","Slight Agreement","Neither Agreement nor Disagreement","Slight Agreement","Moderate Agreement"
"5","A2FJMUOKON4OCQ:3U8YCDAGXQMZ23QMGXUXNCR0U2RQ08","practice",1,5,1,"NA","<p style=""font-size:100px""><b>B</b></p><p style=""position: absolute; top: 30px; right: 30px; text-align:right; font-size:50px"""">N = 1</p>","B",1,73,865,0,"agree",13,18,16,14,17,"40","male","The instructions are very clear.","Slight Disagreement","Slight Agreement","Slight Agreement","Neither Agreement nor Disagreement","Moderate Agreement","Strong Agreement","Neither Agreement nor Disagreement","Moderate Agreement","Slight Agreement","Moderate Agreement","Slight Disagreement","Neither Agreement nor Disagreement","Slight Agreement","Moderate Agreement","Slight Agreement","Neither Agreement nor Disagreement","Slight Agreement","Moderate Agreement"
"6","A2FJMUOKON4OCQ:3U8YCDAGXQMZ23QMGXUXNCR0U2RQ08","practice",1,6,1,"NA","<p style=""font-size:100px""><b>B</b></p><p style=""position: absolute; top: 30px; right: 30px; text-align:right; font-size:50px"""">N = 1</p>","B",1,73,1006,0,"agree",13,18,16,14,17,"40","male","The instructions are very clear.","Slight Disagreement","Slight Agreement","Slight Agreement","Neither Agreement nor Disagreement","Moderate Agreement","Strong Agreement","Neither Agreement nor Disagreement","Moderate Agreement","Slight Agreement","Moderate Agreement","Slight Disagreement","Neither Agreement nor Disagreement","Slight Agreement","Moderate Agreement","Slight Agreement","Neither Agreement nor Disagreement","Slight Agreement","Moderate Agreement"
"7","A2FJMUOKON4OCQ:3U8YCDAGXQMZ23QMGXUXNCR0U2RQ08","practice",1,7,1,"NA","<p style=""font-size:100px""><b>B</b></p><p style=""position: absolute; top: 30px; right: 30px; text-align:right; font-size:50px"""">N = 1</p>","B",1,69,813,1,"agree",13,18,16,14,17,"40","male","The instructions are very clear.","Slight Disagreement","Slight Agreement","Slight Agreement","Neither Agreement nor Disagreement","Moderate Agreement","Strong Agreement","Neither Agreement nor Disagreement","Moderate Agreement","Slight Agreement","Moderate Agreement","Slight Disagreement","Neither Agreement nor Disagreement","Slight Agreement","Moderate Agreement","Slight Agreement","Neither Agreement nor Disagreement","Slight Agreement","Moderate Agreement"
"8","A2FJMUOKON4OCQ:3U8YCDAGXQMZ23QMGXUXNCR0U2RQ08","practice",1,8,1,"NA","<p style=""font-size:100px""><b>P</b></p><p style=""position: absolute; top: 30px; right: 30px; text-align:right; font-size:50px"""">N = 1</p>","P",0,69,1780,0,"agree",13,18,16,14,17,"40","male","The instructions are very clear.","Slight Disagreement","Slight Agreement","Slight Agreement","Neither Agreement nor Disagreement","Moderate Agreement","Strong Agreement","Neither Agreement nor Disagreement","Moderate Agreement","Slight Agreement","Moderate Agreement","Slight Disagreement","Neither Agreement nor Disagreement","Slight Agreement","Moderate Agreement","Slight Agreement","Neither Agreement nor Disagreement","Slight Agreement","Moderate Agreement"
"9","A2FJMUOKON4OCQ:3U8YCDAGXQMZ23QMGXUXNCR0U2RQ08","practice",1,9,1,"NA","<p style=""font-size:100px""><b>T</b></p><p style=""position: absolute; top: 30px; right: 30px; text-align:right; font-size:50px"""">N = 1</p>","T",0,73,1108,1,"agree",13,18,16,14,17,"40","male","The instructions are very clear.","Slight Disagreement","Slight Agreement","Slight Agreement","Neither Agreement nor Disagreement","Moderate Agreement","Strong Agreement","Neither Agreement nor Disagreement","Moderate Agreement","Slight Agreement","Moderate Agreement","Slight Disagreement","Neither Agreement nor Disagreement","Slight Agreement","Moderate Agreement","Slight Agreement","Neither Agreement nor Disagreement","Slight Agreement","Moderate Agreement"
"10","A2FJMUOKON4OCQ:3U8YCDAGXQMZ23QMGXUXNCR0U2RQ08","practice",1,10,1,"NA","<p style=""font-size:100px""><b>B</b></p><p style=""position: absolute; top: 30px; right: 30px; text-align:right; font-size:50px"""">N = 1</p>","B",0,73,1204,1,"agree",13,18,16,14,17,"40","male","The instructions are very clear.","Slight Disagreement","Slight Agreement","Slight Agreement","Neither Agreement nor Disagreement","Moderate Agreement","Strong Agreement","Neither Agreement nor Disagreement","Moderate Agreement","Slight Agreement","Moderate Agreement","Slight Disagreement","Neither Agreement nor Disagreement","Slight Agreement","Moderate Agreement","Slight Agreement","Neither Agreement nor Disagreement","Slight Agreement","Moderate Agreement"
"11","A2FJMUOKON4OCQ:3U8YCDAGXQMZ23QMGXUXNCR0U2RQ08","practice",1,11,1,"NA","<p style=""font-size:100px""><b>B</b></p><p style=""position: absolute; top: 30px; right: 30px; text-align:right; font-size:50px"""">N = 1</p>","B",1,69,958,1,"agree",13,18,16,14,17,"40","male","The instructions are very clear.","Slight Disagreement","Slight Agreement","Slight Agreement","Neither Agreement nor Disagreement","Moderate Agreement","Strong Agreement","Neither Agreement nor Disagreement","Moderate Agreement","Slight Agreement","Moderate Agreement","Slight Disagreement","Neither Agreement nor Disagreement","Slight Agreement","Moderate Agreement","Slight Agreement","Neither Agreement nor Disagreement","Slight Agreement","Moderate Agreement"
"12","A2FJMUOKON4OCQ:3U8YCDAGXQMZ23QMGXUXNCR0U2RQ08","practice",1,12,1,"NA","<p style=""font-size:100px""><b>T</b></p><p style=""position: absolute; top: 30px; right: 30px; text-align:right; font-size:50px"""">N = 1</p>","T",0,73,880,1,"agree",13,18,16,14,17,"40","male","The instructions are very clear.","Slight Disagreement","Slight Agreement","Slight Agreement","Neither Agreement nor Disagreement","Moderate Agreement","Strong Agreement","Neither Agreement nor Disagreement","Moderate Agreement","Slight Agreement","Moderate Agreement","Slight Disagreement","Neither Agreement nor Disagreement","Slight Agreement","Moderate Agreement","Slight Agreement","Neither Agreement nor Disagreement","Slight Agreement","Moderate Agreement"
"13","A2FJMUOKON4OCQ:3U8YCDAGXQMZ23QMGXUXNCR0U2RQ08","practice",2,1,2,"NA","<p style=""font-size:100px""><b>t</b></p><p style=""position: absolute; top: 30px; right: 30px; text-align:right; font-size:50px"""">N = 2</p>","t",0,73,1094,1,"agree",13,18,16,14,17,"40","male","The instructions are very clear.","Slight Disagreement","Slight Agreement","Slight Agreement","Neither Agreement nor Disagreement","Moderate Agreement","Strong Agreement","Neither Agreement nor Disagreement","Moderate Agreement","Slight Agreement","Moderate Agreement","Slight Disagreement","Neither Agreement nor Disagreement","Slight Agreement","Moderate Agreement","Slight Agreement","Neither Agreement nor Disagreement","Slight Agreement","Moderate Agreement"
"14","A2FJMUOKON4OCQ:3U8YCDAGXQMZ23QMGXUXNCR0U2RQ08","practice",2,2,2,"NA","<p style=""font-size:100px""><b>T</b></p><p style=""position: absolute; top: 30px; right: 30px; text-align:right; font-size:50px"""">N = 2</p>","T",0,73,1016,1,"agree",13,18,16,14,17,"40","male","The instructions are very clear.","Slight Disagreement","Slight Agreement","Slight Agreement","Neither Agreement nor Disagreement","Moderate Agreement","Strong Agreement","Neither Agreement nor Disagreement","Moderate Agreement","Slight Agreement","Moderate Agreement","Slight Disagreement","Neither Agreement nor Disagreement","Slight Agreement","Moderate Agreement","Slight Agreement","Neither Agreement nor Disagreement","Slight Agreement","Moderate Agreement"
"15","A2FJMUOKON4OCQ:3U8YCDAGXQMZ23QMGXUXNCR0U2RQ08","practice",2,3,2,"NA","<p style=""font-size:100px""><b>b</b></p><p style=""position: absolute; top: 30px; right: 30px; text-align:right; font-size:50px"""">N = 2</p>","b",0,73,1069,1,"agree",13,18,16,14,17,"40","male","The instructions are very clear.","Slight Disagreement","Slight Agreement","Slight Agreement","Neither Agreement nor Disagreement","Moderate Agreement","Strong Agreement","Neither Agreement nor Disagreement","Moderate Agreement","Slight Agreement","Moderate Agreement","Slight Disagreement","Neither Agreement nor Disagreement","Slight Agreement","Moderate Agreement","Slight Agreement","Neither Agreement nor Disagreement","Slight Agreement","Moderate Agreement"
"16","A2FJMUOKON4OCQ:3U8YCDAGXQMZ23QMGXUXNCR0U2RQ08","practice",2,4,2,"NA","<p style=""font-size:100px""><b>T</b></p><p style=""position: absolute; top: 30px; right: 30px; text-align:right; font-size:50px"""">N = 2</p>","T",1,73,1092,0,"agree",13,18,16,14,17,"40","male","The instructions are very clear.","Slight Disagreement","Slight Agreement","Slight Agreement","Neither Agreement nor Disagreement","Moderate Agreement","Strong Agreement","Neither Agreement nor Disagreement","Moderate Agreement","Slight Agreement","Moderate Agreement","Slight Disagreement","Neither Agreement nor Disagreement","Slight Agreement","Moderate Agreement","Slight Agreement","Neither Agreement nor Disagreement","Slight Agreement","Moderate Agreement"
"17","A2FJMUOKON4OCQ:3U8YCDAGXQMZ23QMGXUXNCR0U2RQ08","practice",2,5,2,"NA","<p style=""font-size:100px""><b>v</b></p><p style=""position: absolute; top: 30px; right: 30px; text-align:right; font-size:50px"""">N = 2</p>","v",0,73,894,1,"agree",13,18,16,14,17,"40","male","The instructions are very clear.","Slight Disagreement","Slight Agreement","Slight Agreement","Neither Agreement nor Disagreement","Moderate Agreement","Strong Agreement","Neither Agreement nor Disagreement","Moderate Agreement","Slight Agreement","Moderate Agreement","Slight Disagreement","Neither Agreement nor Disagreement","Slight Agreement","Moderate Agreement","Slight Agreement","Neither Agreement nor Disagreement","Slight Agreement","Moderate Agreement"
"18","A2FJMUOKON4OCQ:3U8YCDAGXQMZ23QMGXUXNCR0U2RQ08","practice",2,6,2,"NA","<p style=""font-size:100px""><b>b</b></p><p style=""position: absolute; top: 30px; right: 30px; text-align:right; font-size:50px"""">N = 2</p>","b",0,69,800,0,"agree",13,18,16,14,17,"40","male","The instructions are very clear.","Slight Disagreement","Slight Agreement","Slight Agreement","Neither Agreement nor Disagreement","Moderate Agreement","Strong Agreement","Neither Agreement nor Disagreement","Moderate Agreement","Slight Agreement","Moderate Agreement","Slight Disagreement","Neither Agreement nor Disagreement","Slight Agreement","Moderate Agreement","Slight Agreement","Neither Agreement nor Disagreement","Slight Agreement","Moderate Agreement"
"19","A2FJMUOKON4OCQ:3U8YCDAGXQMZ23QMGXUXNCR0U2RQ08","practice",2,7,2,"NA","<p style=""font-size:100px""><b>T</b></p><p style=""position: absolute; top: 30px; right: 30px; text-align:right; font-size:50px"""">N = 2</p>","T",0,73,593,1,"agree",13,18,16,14,17,"40","male","The instructions are very clear.","Slight Disagreement","Slight Agreement","Slight Agreement","Neither Agreement nor Disagreement","Moderate Agreement","Strong Agreement","Neither Agreement nor Disagreement","Moderate Agreement","Slight Agreement","Moderate Agreement","Slight Disagreement","Neither Agreement nor Disagreement","Slight Agreement","Moderate Agreement","Slight Agreement","Neither Agreement nor Disagreement","Slight Agreement","Moderate Agreement"
"20","A2FJMUOKON4OCQ:3U8YCDAGXQMZ23QMGXUXNCR0U2RQ08","practice",2,8,2,"NA","<p style=""font-size:100px""><b>T</b></p><p style=""position: absolute; top: 30px; right: 30px; text-align:right; font-size:50px"""">N = 2</p>","T",0,73,1182,1,"agree",13,18,16,14,17,"40","male","The instructions are very clear.","Slight Disagreement","Slight Agreement","Slight Agreement","Neither Agreement nor Disagreement","Moderate Agreement","Strong Agreement","Neither Agreement nor Disagreement","Moderate Agreement","Slight Agreement","Moderate Agreement","Slight Disagreement","Neither Agreement nor Disagreement","Slight Agreement","Moderate Agreement","Slight Agreement","Neither Agreement nor Disagreement","Slight Agreement","Moderate Agreement"
"21","A2FJMUOKON4OCQ:3U8YCDAGXQMZ23QMGXUXNCR0U2RQ08","practice",2,9,2,"NA","<p style=""font-size:100px""><b>V</b></p><p style=""position: absolute; top: 30px; right: 30px; text-align:right; font-size:50px"""">N = 2</p>","V",0,73,818,1,"agree",13,18,16,14,17,"40","male","The instructions are very clear.","Slight Disagreement","Slight Agreement","Slight Agreement","Neither Agreement nor Disagreement","Moderate Agreement","Strong Agreement","Neither Agreement nor Disagreement","Moderate Agreement","Slight Agreement","Moderate Agreement","Slight Disagreement","Neither Agreement nor Disagreement","Slight Agreement","Moderate Agreement","Slight Agreement","Neither Agreement nor Disagreement","Slight Agreement","Moderate Agreement"
"22","A2FJMUOKON4OCQ:3U8YCDAGXQMZ23QMGXUXNCR0U2RQ08","practice",2,10,2,"NA","<p style=""font-size:100px""><b>T</b></p><p style=""position: absolute; top: 30px; right: 30px; text-align:right; font-size:50px"""">N = 2</p>","T",1,73,721,0,"agree",13,18,16,14,17,"40","male","The instructions are very clear.","Slight Disagreement","Slight Agreement","Slight Agreement","Neither Agreement nor Disagreement","Moderate Agreement","Strong Agreement","Neither Agreement nor Disagreement","Moderate Agreement","Slight Agreement","Moderate Agreement","Slight Disagreement","Neither Agreement nor Disagreement","Slight Agreement","Moderate Agreement","Slight Agreement","Neither Agreement nor Disagreement","Slight Agreement","Moderate Agreement"
"23","A2FJMUOKON4OCQ:3U8YCDAGXQMZ23QMGXUXNCR0U2RQ08","practice",2,11,2,"NA","<p style=""font-size:100px""><b>V</b></p><p style=""position: absolute; top: 30px; right: 30px; text-align:right; font-size:50px"""">N = 2</p>","V",1,73,799,0,"agree",13,18,16,14,17,"40","male","The instructions are very clear.","Slight Disagreement","Slight Agreement","Slight Agreement","Neither Agreement nor Disagreement","Moderate Agreement","Strong Agreement","Neither Agreement nor Disagreement","Moderate Agreement","Slight Agreement","Moderate Agreement","Slight Disagreement","Neither Agreement nor Disagreement","Slight Agreement","Moderate Agreement","Slight Agreement","Neither Agreement nor Disagreement","Slight Agreement","Moderate Agreement"
"24","A2FJMUOKON4OCQ:3U8YCDAGXQMZ23QMGXUXNCR0U2RQ08","practice",2,12,2,"NA","<p style=""font-size:100px""><b>T</b></p><p style=""position: absolute; top: 30px; right: 30px; text-align:right; font-size:50px"""">N = 2</p>","T",1,73,649,0,"agree",13,18,16,14,17,"40","male","The instructions are very clear.","Slight Disagreement","Slight Agreement","Slight Agreement","Neither Agreement nor Disagreement","Moderate Agreement","Strong Agreement","Neither Agreement nor Disagreement","Moderate Agreement","Slight Agreement","Moderate Agreement","Slight Disagreement","Neither Agreement nor Disagreement","Slight Agreement","Moderate Agreement","Slight Agreement","Neither Agreement nor Disagreement","Slight Agreement","Moderate Agreement"
"25","A2FJMUOKON4OCQ:3U8YCDAGXQMZ23QMGXUXNCR0U2RQ08","practice",3,1,3,"NA","<p style=""font-size:100px""><b>V</b></p><p style=""position: absolute; top: 30px; right: 30px; text-align:right; font-size:50px"""">N = 3</p>","V",0,73,946,1,"agree",13,18,16,14,17,"40","male","The instructions are very clear.","Slight Disagreement","Slight Agreement","Slight Agreement","Neither Agreement nor Disagreement","Moderate Agreement","Strong Agreement","Neither Agreement nor Disagreement","Moderate Agreement","Slight Agreement","Moderate Agreement","Slight Disagreement","Neither Agreement nor Disagreement","Slight Agreement","Moderate Agreement","Slight Agreement","Neither Agreement nor Disagreement","Slight Agreement","Moderate Agreement"
"26","A2FJMUOKON4OCQ:3U8YCDAGXQMZ23QMGXUXNCR0U2RQ08","practice",3,2,3,"NA","<p style=""font-size:100px""><b>T</b></p><p style=""position: absolute; top: 30px; right: 30px; text-align:right; font-size:50px"""">N = 3</p>","T",0,73,1058,1,"agree",13,18,16,14,17,"40","male","The instructions are very clear.","Slight Disagreement","Slight Agreement","Slight Agreement","Neither Agreement nor Disagreement","Moderate Agreement","Strong Agreement","Neither Agreement nor Disagreement","Moderate Agreement","Slight Agreement","Moderate Agreement","Slight Disagreement","Neither Agreement nor Disagreement","Slight Agreement","Moderate Agreement","Slight Agreement","Neither Agreement nor Disagreement","Slight Agreement","Moderate Agreement"
"27","A2FJMUOKON4OCQ:3U8YCDAGXQMZ23QMGXUXNCR0U2RQ08","practice",3,3,3,"NA","<p style=""font-size:100px""><b>t</b></p><p style=""position: absolute; top: 30px; right: 30px; text-align:right; font-size:50px"""">N = 3</p>","t",0,73,846,1,"agree",13,18,16,14,17,"40","male","The instructions are very clear.","Slight Disagreement","Slight Agreement","Slight Agreement","Neither Agreement nor Disagreement","Moderate Agreement","Strong Agreement","Neither Agreement nor Disagreement","Moderate Agreement","Slight Agreement","Moderate Agreement","Slight Disagreement","Neither Agreement nor Disagreement","Slight Agreement","Moderate Agreement","Slight Agreement","Neither Agreement nor Disagreement","Slight Agreement","Moderate Agreement"
"28","A2FJMUOKON4OCQ:3U8YCDAGXQMZ23QMGXUXNCR0U2RQ08","practice",3,4,3,"NA","<p style=""font-size:100px""><b>V</b></p><p style=""position: absolute; top: 30px; right: 30px; text-align:right; font-size:50px"""">N = 3</p>","V",1,73,832,0,"agree",13,18,16,14,17,"40","male","The instructions are very clear.","Slight Disagreement","Slight Agreement","Slight Agreement","Neither Agreement nor Disagreement","Moderate Agreement","Strong Agreement","Neither Agreement nor Disagreement","Moderate Agreement","Slight Agreement","Moderate Agreement","Slight Disagreement","Neither Agreement nor Disagreement","Slight Agreement","Moderate Agreement","Slight Agreement","Neither Agreement nor Disagreement","Slight Agreement","Moderate Agreement"
"29","A2FJMUOKON4OCQ:3U8YCDAGXQMZ23QMGXUXNCR0U2RQ08","practice",3,5,3,"NA","<p style=""font-size:100px""><b>P</b></p><p style=""position: absolute; top: 30px; right: 30px; text-align:right; font-size:50px"""">N = 3</p>","P",0,73,816,1,"agree",13,18,16,14,17,"40","male","The instructions are very clear.","Slight Disagreement","Slight Agreement","Slight Agreement","Neither Agreement nor Disagreement","Moderate Agreement","Strong Agreement","Neither Agreement nor Disagreement","Moderate Agreement","Slight Agreement","Moderate Agreement","Slight Disagreement","Neither Agreement nor Disagreement","Slight Agreement","Moderate Agreement","Slight Agreement","Neither Agreement nor Disagreement","Slight Agreement","Moderate Agreement"
"30","A2FJMUOKON4OCQ:3U8YCDAGXQMZ23QMGXUXNCR0U2RQ08","practice",3,6,3,"NA","<p style=""font-size:100px""><b>P</b></p><p style=""position: absolute; top: 30px; right: 30px; text-align:right; font-size:50px"""">N = 3</p>","P",0,73,753,1,"agree",13,18,16,14,17,"40","male","The instructions are very clear.","Slight Disagreement","Slight Agreement","Slight Agreement","Neither Agreement nor Disagreement","Moderate Agreement","Strong Agreement","Neither Agreement nor Disagreement","Moderate Agreement","Slight Agreement","Moderate Agreement","Slight Disagreement","Neither Agreement nor Disagreement","Slight Agreement","Moderate Agreement","Slight Agreement","Neither Agreement nor Disagreement","Slight Agreement","Moderate Agreement"
"31","A2FJMUOKON4OCQ:3U8YCDAGXQMZ23QMGXUXNCR0U2RQ08","practice",3,7,3,"NA","<p style=""font-size:100px""><b>V</b></p><p style=""position: absolute; top: 30px; right: 30px; text-align:right; font-size:50px"""">N = 3</p>","V",1,73,638,0,"agree",13,18,16,14,17,"40","male","The instructions are very clear.","Slight Disagreement","Slight Agreement","Slight Agreement","Neither Agreement nor Disagreement","Moderate Agreement","Strong Agreement","Neither Agreement nor Disagreement","Moderate Agreement","Slight Agreement","Moderate Agreement","Slight Disagreement","Neither Agreement nor Disagreement","Slight Agreement","Moderate Agreement","Slight Agreement","Neither Agreement nor Disagreement","Slight Agreement","Moderate Agreement"
"32","A2FJMUOKON4OCQ:3U8YCDAGXQMZ23QMGXUXNCR0U2RQ08","practice",3,8,3,"NA","<p style=""font-size:100px""><b>b</b></p><p style=""position: absolute; top: 30px; right: 30px; text-align:right; font-size:50px"""">N = 3</p>","b",0,69,654,0,"agree",13,18,16,14,17,"40","male","The instructions are very clear.","Slight Disagreement","Slight Agreement","Slight Agreement","Neither Agreement nor Disagreement","Moderate Agreement","Strong Agreement","Neither Agreement nor Disagreement","Moderate Agreement","Slight Agreement","Moderate Agreement","Slight Disagreement","Neither Agreement nor Disagreement","Slight Agreement","Moderate Agreement","Slight Agreement","Neither Agreement nor Disagreement","Slight Agreement","Moderate Agreement"
"33","A2FJMUOKON4OCQ:3U8YCDAGXQMZ23QMGXUXNCR0U2RQ08","practice",3,9,3,"NA","<p style=""font-size:100px""><b>P</b></p><p style=""position: absolute; top: 30px; right: 30px; text-align:right; font-size:50px"""">N = 3</p>","P",1,73,542,0,"agree",13,18,16,14,17,"40","male","The instructions are very clear.","Slight Disagreement","Slight Agreement","Slight Agreement","Neither Agreement nor Disagreement","Moderate Agreement","Strong Agreement","Neither Agreement nor Disagreement","Moderate Agreement","Slight Agreement","Moderate Agreement","Slight Disagreement","Neither Agreement nor Disagreement","Slight Agreement","Moderate Agreement","Slight Agreement","Neither Agreement nor Disagreement","Slight Agreement","Moderate Agreement"
"34","A2FJMUOKON4OCQ:3U8YCDAGXQMZ23QMGXUXNCR0U2RQ08","practice",3,10,3,"NA","<p style=""font-size:100px""><b>V</b></p><p style=""position: absolute; top: 30px; right: 30px; text-align:right; font-size:50px"""">N = 3</p>","V",1,73,559,0,"agree",13,18,16,14,17,"40","male","The instructions are very clear.","Slight Disagreement","Slight Agreement","Slight Agreement","Neither Agreement nor Disagreement","Moderate Agreement","Strong Agreement","Neither Agreement nor Disagreement","Moderate Agreement","Slight Agreement","Moderate Agreement","Slight Disagreement","Neither Agreement nor Disagreement","Slight Agreement","Moderate Agreement","Slight Agreement","Neither Agreement nor Disagreement","Slight Agreement","Moderate Agreement"
"35","A2FJMUOKON4OCQ:3U8YCDAGXQMZ23QMGXUXNCR0U2RQ08","practice",3,11,3,"NA","<p style=""font-size:100px""><b>p</b></p><p style=""position: absolute; top: 30px; right: 30px; text-align:right; font-size:50px"""">N = 3</p>","p",0,73,676,1,"agree",13,18,16,14,17,"40","male","The instructions are very clear.","Slight Disagreement","Slight Agreement","Slight Agreement","Neither Agreement nor Disagreement","Moderate Agreement","Strong Agreement","Neither Agreement nor Disagreement","Moderate Agreement","Slight Agreement","Moderate Agreement","Slight Disagreement","Neither Agreement nor Disagreement","Slight Agreement","Moderate Agreement","Slight Agreement","Neither Agreement nor Disagreement","Slight Agreement","Moderate Agreement"
"36","A2FJMUOKON4OCQ:3U8YCDAGXQMZ23QMGXUXNCR0U2RQ08","practice",3,12,3,"NA","<p style=""font-size:100px""><b>D</b></p><p style=""position: absolute; top: 30px; right: 30px; text-align:right; font-size:50px"""">N = 3</p>","D",0,73,721,1,"agree",13,18,16,14,17,"40","male","The instructions are very clear.","Slight Disagreement","Slight Agreement","Slight Agreement","Neither Agreement nor Disagreement","Moderate Agreement","Strong Agreement","Neither Agreement nor Disagreement","Moderate Agreement","Slight Agreement","Moderate Agreement","Slight Disagreement","Neither Agreement nor Disagreement","Slight Agreement","Moderate Agreement","Slight Agreement","Neither Agreement nor Disagreement","Slight Agreement","Moderate Agreement"
"37","A2FJMUOKON4OCQ:3U8YCDAGXQMZ23QMGXUXNCR0U2RQ08","1",1,1,3,"5","<p style=""font-size:100px""><b>g</b></p><p style=""position: absolute; top: 30px; right: 30px; text-align:right; font-size:50px"""">N = 3</p>","g",0,NA,NA,0,"agree",13,18,16,14,17,"40","male","The instructions are very clear.","Slight Disagreement","Slight Agreement","Slight Agreement","Neither Agreement nor Disagreement","Moderate Agreement","Strong Agreement","Neither Agreement nor Disagreement","Moderate Agreement","Slight Agreement","Moderate Agreement","Slight Disagreement","Neither Agreement nor Disagreement","Slight Agreement","Moderate Agreement","Slight Agreement","Neither Agreement nor Disagreement","Slight Agreement","Moderate Agreement"
"38","A2FJMUOKON4OCQ:3U8YCDAGXQMZ23QMGXUXNCR0U2RQ08","1",1,2,3,"5","<p style=""font-size:100px""><b>P</b></p><p style=""position: absolute; top: 30px; right: 30px; text-align:right; font-size:50px"""">N = 3</p>","P",0,73,845,1,"agree",13,18,16,14,17,"40","male","The instructions are very clear.","Slight Disagreement","Slight Agreement","Slight Agreement","Neither Agreement nor Disagreement","Moderate Agreement","Strong Agreement","Neither Agreement nor Disagreement","Moderate Agreement","Slight Agreement","Moderate Agreement","Slight Disagreement","Neither Agreement nor Disagreement","Slight Agreement","Moderate Agreement","Slight Agreement","Neither Agreement nor Disagreement","Slight Agreement","Moderate Agreement"
"39","A2FJMUOKON4OCQ:3U8YCDAGXQMZ23QMGXUXNCR0U2RQ08","1",1,3,3,"5","<p style=""font-size:100px""><b>D</b></p><p style=""position: absolute; top: 30px; right: 30px; text-align:right; font-size:50px"""">N = 3</p>","D",0,73,591,1,"agree",13,18,16,14,17,"40","male","The instructions are very clear.","Slight Disagreement","Slight Agreement","Slight Agreement","Neither Agreement nor Disagreement","Moderate Agreement","Strong Agreement","Neither Agreement nor Disagreement","Moderate Agreement","Slight Agreement","Moderate Agreement","Slight Disagreement","Neither Agreement nor Disagreement","Slight Agreement","Moderate Agreement","Slight Agreement","Neither Agreement nor Disagreement","Slight Agreement","Moderate Agreement"
"40","A2FJMUOKON4OCQ:3U8YCDAGXQMZ23QMGXUXNCR0U2RQ08","1",1,4,3,"5","<p style=""font-size:100px""><b>v</b></p><p style=""position: absolute; top: 30px; right: 30px; text-align:right; font-size:50px"""">N = 3</p>","v",0,73,337,1,"agree",13,18,16,14,17,"40","male","The instructions are very clear.","Slight Disagreement","Slight Agreement","Slight Agreement","Neither Agreement nor Disagreement","Moderate Agreement","Strong Agreement","Neither Agreement nor Disagreement","Moderate Agreement","Slight Agreement","Moderate Agreement","Slight Disagreement","Neither Agreement nor Disagreement","Slight Agreement","Moderate Agreement","Slight Agreement","Neither Agreement nor Disagreement","Slight Agreement","Moderate Agreement"
"41","A2FJMUOKON4OCQ:3U8YCDAGXQMZ23QMGXUXNCR0U2RQ08","1",1,5,3,"5","<p style=""font-size:100px""><b>g</b></p><p style=""position: absolute; top: 30px; right: 30px; text-align:right; font-size:50px"""">N = 3</p>","g",0,73,52,1,"agree",13,18,16,14,17,"40","male","The instructions are very clear.","Slight Disagreement","Slight Agreement","Slight Agreement","Neither Agreement nor Disagreement","Moderate Agreement","Strong Agreement","Neither Agreement nor Disagreement","Moderate Agreement","Slight Agreement","Moderate Agreement","Slight Disagreement","Neither Agreement nor Disagreement","Slight Agreement","Moderate Agreement","Slight Agreement","Neither Agreement nor Disagreement","Slight Agreement","Moderate Agreement"
"42","A2FJMUOKON4OCQ:3U8YCDAGXQMZ23QMGXUXNCR0U2RQ08","1",1,6,3,"5","<p style=""font-size:100px""><b>g</b></p><p style=""position: absolute; top: 30px; right: 30px; text-align:right; font-size:50px"""">N = 3</p>","g",0,73,738,1,"agree",13,18,16,14,17,"40","male","The instructions are very clear.","Slight Disagreement","Slight Agreement","Slight Agreement","Neither Agreement nor Disagreement","Moderate Agreement","Strong Agreement","Neither Agreement nor Disagreement","Moderate Agreement","Slight Agreement","Moderate Agreement","Slight Disagreement","Neither Agreement nor Disagreement","Slight Agreement","Moderate Agreement","Slight Agreement","Neither Agreement nor Disagreement","Slight Agreement","Moderate Agreement"
"43","A2FJMUOKON4OCQ:3U8YCDAGXQMZ23QMGXUXNCR0U2RQ08","1",1,7,3,"5","<p style=""font-size:100px""><b>v</b></p><p style=""position: absolute; top: 30px; right: 30px; text-align:right; font-size:50px"""">N = 3</p>","v",0,73,661,1,"agree",13,18,16,14,17,"40","male","The instructions are very clear.","Slight Disagreement","Slight Agreement","Slight Agreement","Neither Agreement nor Disagreement","Moderate Agreement","Strong Agreement","Neither Agreement nor Disagreement","Moderate Agreement","Slight Agreement","Moderate Agreement","Slight Disagreement","Neither Agreement nor Disagreement","Slight Agreement","Moderate Agreement","Slight Agreement","Neither Agreement nor Disagreement","Slight Agreement","Moderate Agreement"
"44","A2FJMUOKON4OCQ:3U8YCDAGXQMZ23QMGXUXNCR0U2RQ08","1",1,8,3,"5","<p style=""font-size:100px""><b>B</b></p><p style=""position: absolute; top: 30px; right: 30px; text-align:right; font-size:50px"""">N = 3</p>","B",0,73,310,1,"agree",13,18,16,14,17,"40","male","The instructions are very clear.","Slight Disagreement","Slight Agreement","Slight Agreement","Neither Agreement nor Disagreement","Moderate Agreement","Strong Agreement","Neither Agreement nor Disagreement","Moderate Agreement","Slight Agreement","Moderate Agreement","Slight Disagreement","Neither Agreement nor Disagreement","Slight Agreement","Moderate Agreement","Slight Agreement","Neither Agreement nor Disagreement","Slight Agreement","Moderate Agreement"
"45","A2FJMUOKON4OCQ:3U8YCDAGXQMZ23QMGXUXNCR0U2RQ08","1",1,9,3,"5","<p style=""font-size:100px""><b>g</b></p><p style=""position: absolute; top: 30px; right: 30px; text-align:right; font-size:50px"""">N = 3</p>","g",0,73,404,1,"agree",13,18,16,14,17,"40","male","The instructions are very clear.","Slight Disagreement","Slight Agreement","Slight Agreement","Neither Agreement nor Disagreement","Moderate Agreement","Strong Agreement","Neither Agreement nor Disagreement","Moderate Agreement","Slight Agreement","Moderate Agreement","Slight Disagreement","Neither Agreement nor Disagreement","Slight Agreement","Moderate Agreement","Slight Agreement","Neither Agreement nor Disagreement","Slight Agreement","Moderate Agreement"
"46","A2FJMUOKON4OCQ:3U8YCDAGXQMZ23QMGXUXNCR0U2RQ08","1",1,10,3,"5","<p style=""font-size:100px""><b>B</b></p><p style=""position: absolute; top: 30px; right: 30px; text-align:right; font-size:50px"""">N = 3</p>","B",0,73,533,1,"agree",13,18,16,14,17,"40","male","The instructions are very clear.","Slight Disagreement","Slight Agreement","Slight Agreement","Neither Agreement nor Disagreement","Moderate Agreement","Strong Agreement","Neither Agreement nor Disagreement","Moderate Agreement","Slight Agreement","Moderate Agreement","Slight Disagreement","Neither Agreement nor Disagreement","Slight Agreement","Moderate Agreement","Slight Agreement","Neither Agreement nor Disagreement","Slight Agreement","Moderate Agreement"
"47","A2FJMUOKON4OCQ:3U8YCDAGXQMZ23QMGXUXNCR0U2RQ08","1",1,11,3,"5","<p style=""font-size:100px""><b>B</b></p><p style=""position: absolute; top: 30px; right: 30px; text-align:right; font-size:50px"""">N = 3</p>","B",0,73,215,1,"agree",13,18,16,14,17,"40","male","The instructions are very clear.","Slight Disagreement","Slight Agreement","Slight Agreement","Neither Agreement nor Disagreement","Moderate Agreement","Strong Agreement","Neither Agreement nor Disagreement","Moderate Agreement","Slight Agreement","Moderate Agreement","Slight Disagreement","Neither Agreement nor Disagreement","Slight Agreement","Moderate Agreement","Slight Agreement","Neither Agreement nor Disagreement","Slight Agreement","Moderate Agreement"
"48","A2FJMUOKON4OCQ:3U8YCDAGXQMZ23QMGXUXNCR0U2RQ08","1",1,12,3,"5","<p style=""font-size:100px""><b>g</b></p><p style=""position: absolute; top: 30px; right: 30px; text-align:right; font-size:50px"""">N = 3</p>","g",0,73,587,1,"agree",13,18,16,14,17,"40","male","The instructions are very clear.","Slight Disagreement","Slight Agreement","Slight Agreement","Neither Agreement nor Disagreement","Moderate Agreement","Strong Agreement","Neither Agreement nor Disagreement","Moderate Agreement","Slight Agreement","Moderate Agreement","Slight Disagreement","Neither Agreement nor Disagreement","Slight Agreement","Moderate Agreement","Slight Agreement","Neither Agreement nor Disagreement","Slight Agreement","Moderate Agreement"
"49","A2FJMUOKON4OCQ:3U8YCDAGXQMZ23QMGXUXNCR0U2RQ08","1",2,1,2,"50","<p style=""font-size:100px""><b>v</b></p><p style=""position: absolute; top: 30px; right: 30px; text-align:right; font-size:50px"""">N = 2</p>","v",0,73,706,1,"agree",14,16,17,14,19,"40","male","The instructions are very clear.","Slight Disagreement","Slight Agreement","Slight Agreement","Neither Agreement nor Disagreement","Moderate Agreement","Strong Agreement","Neither Agreement nor Disagreement","Moderate Agreement","Slight Agreement","Moderate Agreement","Slight Disagreement","Neither Agreement nor Disagreement","Slight Agreement","Moderate Agreement","Slight Agreement","Neither Agreement nor Disagreement","Slight Agreement","Moderate Agreement"
"50","A2FJMUOKON4OCQ:3U8YCDAGXQMZ23QMGXUXNCR0U2RQ08","1",2,2,2,"50","<p style=""font-size:100px""><b>B</b></p><p style=""position: absolute; top: 30px; right: 30px; text-align:right; font-size:50px"""">N = 2</p>","B",0,73,259,1,"agree",14,16,17,14,19,"40","male","The instructions are very clear.","Slight Disagreement","Slight Agreement","Slight Agreement","Neither Agreement nor Disagreement","Moderate Agreement","Strong Agreement","Neither Agreement nor Disagreement","Moderate Agreement","Slight Agreement","Moderate Agreement","Slight Disagreement","Neither Agreement nor Disagreement","Slight Agreement","Moderate Agreement","Slight Agreement","Neither Agreement nor Disagreement","Slight Agreement","Moderate Agreement"
"51","A2FJMUOKON4OCQ:3U8YCDAGXQMZ23QMGXUXNCR0U2RQ08","1",2,3,2,"50","<p style=""font-size:100px""><b>v</b></p><p style=""position: absolute; top: 30px; right: 30px; text-align:right; font-size:50px"""">N = 2</p>","v",0,73,579,1,"agree",14,16,17,14,19,"40","male","The instructions are very clear.","Slight Disagreement","Slight Agreement","Slight Agreement","Neither Agreement nor Disagreement","Moderate Agreement","Strong Agreement","Neither Agreement nor Disagreement","Moderate Agreement","Slight Agreement","Moderate Agreement","Slight Disagreement","Neither Agreement nor Disagreement","Slight Agreement","Moderate Agreement","Slight Agreement","Neither Agreement nor Disagreement","Slight Agreement","Moderate Agreement"
"52","A2FJMUOKON4OCQ:3U8YCDAGXQMZ23QMGXUXNCR0U2RQ08","1",2,4,2,"50","<p style=""font-size:100px""><b>D</b></p><p style=""position: absolute; top: 30px; right: 30px; text-align:right; font-size:50px"""">N = 2</p>","D",0,73,582,1,"agree",14,16,17,14,19,"40","male","The instructions are very clear.","Slight Disagreement","Slight Agreement","Slight Agreement","Neither Agreement nor Disagreement","Moderate Agreement","Strong Agreement","Neither Agreement nor Disagreement","Moderate Agreement","Slight Agreement","Moderate Agreement","Slight Disagreement","Neither Agreement nor Disagreement","Slight Agreement","Moderate Agreement","Slight Agreement","Neither Agreement nor Disagreement","Slight Agreement","Moderate Agreement"
"53","A2FJMUOKON4OCQ:3U8YCDAGXQMZ23QMGXUXNCR0U2RQ08","1",2,5,2,"50","<p style=""font-size:100px""><b>b</b></p><p style=""position: absolute; top: 30px; right: 30px; text-align:right; font-size:50px"""">N = 2</p>","b",0,73,551,1,"agree",14,16,17,14,19,"40","male","The instructions are very clear.","Slight Disagreement","Slight Agreement","Slight Agreement","Neither Agreement nor Disagreement","Moderate Agreement","Strong Agreement","Neither Agreement nor Disagreement","Moderate Agreement","Slight Agreement","Moderate Agreement","Slight Disagreement","Neither Agreement nor Disagreement","Slight Agreement","Moderate Agreement","Slight Agreement","Neither Agreement nor Disagreement","Slight Agreement","Moderate Agreement"
"54","A2FJMUOKON4OCQ:3U8YCDAGXQMZ23QMGXUXNCR0U2RQ08","1",2,6,2,"50","<p style=""font-size:100px""><b>P</b></p><p style=""position: absolute; top: 30px; right: 30px; text-align:right; font-size:50px"""">N = 2</p>","P",0,73,553,1,"agree",14,16,17,14,19,"40","male","The instructions are very clear.","Slight Disagreement","Slight Agreement","Slight Agreement","Neither Agreement nor Disagreement","Moderate Agreement","Strong Agreement","Neither Agreement nor Disagreement","Moderate Agreement","Slight Agreement","Moderate Agreement","Slight Disagreement","Neither Agreement nor Disagreement","Slight Agreement","Moderate Agreement","Slight Agreement","Neither Agreement nor Disagreement","Slight Agreement","Moderate Agreement"
"55","A2FJMUOKON4OCQ:3U8YCDAGXQMZ23QMGXUXNCR0U2RQ08","1",2,7,2,"50","<p style=""font-size:100px""><b>b</b></p><p style=""position: absolute; top: 30px; right: 30px; text-align:right; font-size:50px"""">N = 2</p>","b",0,73,544,1,"agree",14,16,17,14,19,"40","male","The instructions are very clear.","Slight Disagreement","Slight Agreement","Slight Agreement","Neither Agreement nor Disagreement","Moderate Agreement","Strong Agreement","Neither Agreement nor Disagreement","Moderate Agreement","Slight Agreement","Moderate Agreement","Slight Disagreement","Neither Agreement nor Disagreement","Slight Agreement","Moderate Agreement","Slight Agreement","Neither Agreement nor Disagreement","Slight Agreement","Moderate Agreement"
"56","A2FJMUOKON4OCQ:3U8YCDAGXQMZ23QMGXUXNCR0U2RQ08","1",2,8,2,"50","<p style=""font-size:100px""><b>G</b></p><p style=""position: absolute; top: 30px; right: 30px; text-align:right; font-size:50px"""">N = 2</p>","G",0,73,507,1,"agree",14,16,17,14,19,"40","male","The instructions are very clear.","Slight Disagreement","Slight Agreement","Slight Agreement","Neither Agreement nor Disagreement","Moderate Agreement","Strong Agreement","Neither Agreement nor Disagreement","Moderate Agreement","Slight Agreement","Moderate Agreement","Slight Disagreement","Neither Agreement nor Disagreement","Slight Agreement","Moderate Agreement","Slight Agreement","Neither Agreement nor Disagreement","Slight Agreement","Moderate Agreement"
"57","A2FJMUOKON4OCQ:3U8YCDAGXQMZ23QMGXUXNCR0U2RQ08","1",2,9,2,"50","<p style=""font-size:100px""><b>p</b></p><p style=""position: absolute; top: 30px; right: 30px; text-align:right; font-size:50px"""">N = 2</p>","p",0,73,519,1,"agree",14,16,17,14,19,"40","male","The instructions are very clear.","Slight Disagreement","Slight Agreement","Slight Agreement","Neither Agreement nor Disagreement","Moderate Agreement","Strong Agreement","Neither Agreement nor Disagreement","Moderate Agreement","Slight Agreement","Moderate Agreement","Slight Disagreement","Neither Agreement nor Disagreement","Slight Agreement","Moderate Agreement","Slight Agreement","Neither Agreement nor Disagreement","Slight Agreement","Moderate Agreement"
"58","A2FJMUOKON4OCQ:3U8YCDAGXQMZ23QMGXUXNCR0U2RQ08","1",2,10,2,"50","<p style=""font-size:100px""><b>G</b></p><p style=""position: absolute; top: 30px; right: 30px; text-align:right; font-size:50px"""">N = 2</p>","G",0,73,511,1,"agree",14,16,17,14,19,"40","male","The instructions are very clear.","Slight Disagreement","Slight Agreement","Slight Agreement","Neither Agreement nor Disagreement","Moderate Agreement","Strong Agreement","Neither Agreement nor Disagreement","Moderate Agreement","Slight Agreement","Moderate Agreement","Slight Disagreement","Neither Agreement nor Disagreement","Slight Agreement","Moderate Agreement","Slight Agreement","Neither Agreement nor Disagreement","Slight Agreement","Moderate Agreement"
"59","A2FJMUOKON4OCQ:3U8YCDAGXQMZ23QMGXUXNCR0U2RQ08","1",2,11,2,"50","<p style=""font-size:100px""><b>g</b></p><p style=""position: absolute; top: 30px; right: 30px; text-align:right; font-size:50px"""">N = 2</p>","g",0,73,414,1,"agree",14,16,17,14,19,"40","male","The instructions are very clear.","Slight Disagreement","Slight Agreement","Slight Agreement","Neither Agreement nor Disagreement","Moderate Agreement","Strong Agreement","Neither Agreement nor Disagreement","Moderate Agreement","Slight Agreement","Moderate Agreement","Slight Disagreement","Neither Agreement nor Disagreement","Slight Agreement","Moderate Agreement","Slight Agreement","Neither Agreement nor Disagreement","Slight Agreement","Moderate Agreement"
"60","A2FJMUOKON4OCQ:3U8YCDAGXQMZ23QMGXUXNCR0U2RQ08","1",2,12,2,"50","<p style=""font-size:100px""><b>G</b></p><p style=""position: absolute; top: 30px; right: 30px; text-align:right; font-size:50px"""">N = 2</p>","G",0,73,510,1,"agree",14,16,17,14,19,"40","male","The instructions are very clear.","Slight Disagreement","Slight Agreement","Slight Agreement","Neither Agreement nor Disagreement","Moderate Agreement","Strong Agreement","Neither Agreement nor Disagreement","Moderate Agreement","Slight Agreement","Moderate Agreement","Slight Disagreement","Neither Agreement nor Disagreement","Slight Agreement","Moderate Agreement","Slight Agreement","Neither Agreement nor Disagreement","Slight Agreement","Moderate Agreement"
"61","A2FJMUOKON4OCQ:3U8YCDAGXQMZ23QMGXUXNCR0U2RQ08","1",3,1,3,"50","<p style=""font-size:100px""><b>D</b></p><p style=""position: absolute; top: 30px; right: 30px; text-align:right; font-size:50px"""">N = 3</p>","D",0,73,655,1,"agree",15,17,16,18,18,"40","male","The instructions are very clear.","Slight Disagreement","Slight Agreement","Slight Agreement","Neither Agreement nor Disagreement","Moderate Agreement","Strong Agreement","Neither Agreement nor Disagreement","Moderate Agreement","Slight Agreement","Moderate Agreement","Slight Disagreement","Neither Agreement nor Disagreement","Slight Agreement","Moderate Agreement","Slight Agreement","Neither Agreement nor Disagreement","Slight Agreement","Moderate Agreement"
"62","A2FJMUOKON4OCQ:3U8YCDAGXQMZ23QMGXUXNCR0U2RQ08","1",3,2,3,"50","<p style=""font-size:100px""><b>P</b></p><p style=""position: absolute; top: 30px; right: 30px; text-align:right; font-size:50px"""">N = 3</p>","P",0,73,577,1,"agree",15,17,16,18,18,"40","male","The instructions are very clear.","Slight Disagreement","Slight Agreement","Slight Agreement","Neither Agreement nor Disagreement","Moderate Agreement","Strong Agreement","Neither Agreement nor Disagreement","Moderate Agreement","Slight Agreement","Moderate Agreement","Slight Disagreement","Neither Agreement nor Disagreement","Slight Agreement","Moderate Agreement","Slight Agreement","Neither Agreement nor Disagreement","Slight Agreement","Moderate Agreement"
"63","A2FJMUOKON4OCQ:3U8YCDAGXQMZ23QMGXUXNCR0U2RQ08","1",3,3,3,"50","<p style=""font-size:100px""><b>b</b></p><p style=""position: absolute; top: 30px; right: 30px; text-align:right; font-size:50px"""">N = 3</p>","b",0,73,801,1,"agree",15,17,16,18,18,"40","male","The instructions are very clear.","Slight Disagreement","Slight Agreement","Slight Agreement","Neither Agreement nor Disagreement","Moderate Agreement","Strong Agreement","Neither Agreement nor Disagreement","Moderate Agreement","Slight Agreement","Moderate Agreement","Slight Disagreement","Neither Agreement nor Disagreement","Slight Agreement","Moderate Agreement","Slight Agreement","Neither Agreement nor Disagreement","Slight Agreement","Moderate Agreement"
"64","A2FJMUOKON4OCQ:3U8YCDAGXQMZ23QMGXUXNCR0U2RQ08","1",3,4,3,"50","<p style=""font-size:100px""><b>V</b></p><p style=""position: absolute; top: 30px; right: 30px; text-align:right; font-size:50px"""">N = 3</p>","V",0,73,704,1,"agree",15,17,16,18,18,"40","male","The instructions are very clear.","Slight Disagreement","Slight Agreement","Slight Agreement","Neither Agreement nor Disagreement","Moderate Agreement","Strong Agreement","Neither Agreement nor Disagreement","Moderate Agreement","Slight Agreement","Moderate Agreement","Slight Disagreement","Neither Agreement nor Disagreement","Slight Agreement","Moderate Agreement","Slight Agreement","Neither Agreement nor Disagreement","Slight Agreement","Moderate Agreement"
"65","A2FJMUOKON4OCQ:3U8YCDAGXQMZ23QMGXUXNCR0U2RQ08","1",3,5,3,"50","<p style=""font-size:100px""><b>P</b></p><p style=""position: absolute; top: 30px; right: 30px; text-align:right; font-size:50px"""">N = 3</p>","P",0,73,705,1,"agree",15,17,16,18,18,"40","male","The instructions are very clear.","Slight Disagreement","Slight Agreement","Slight Agreement","Neither Agreement nor Disagreement","Moderate Agreement","Strong Agreement","Neither Agreement nor Disagreement","Moderate Agreement","Slight Agreement","Moderate Agreement","Slight Disagreement","Neither Agreement nor Disagreement","Slight Agreement","Moderate Agreement","Slight Agreement","Neither Agreement nor Disagreement","Slight Agreement","Moderate Agreement"
"66","A2FJMUOKON4OCQ:3U8YCDAGXQMZ23QMGXUXNCR0U2RQ08","1",3,6,3,"50","<p style=""font-size:100px""><b>G</b></p><p style=""position: absolute; top: 30px; right: 30px; text-align:right; font-size:50px"""">N = 3</p>","G",0,73,674,1,"agree",15,17,16,18,18,"40","male","The instructions are very clear.","Slight Disagreement","Slight Agreement","Slight Agreement","Neither Agreement nor Disagreement","Moderate Agreement","Strong Agreement","Neither Agreement nor Disagreement","Moderate Agreement","Slight Agreement","Moderate Agreement","Slight Disagreement","Neither Agreement nor Disagreement","Slight Agreement","Moderate Agreement","Slight Agreement","Neither Agreement nor Disagreement","Slight Agreement","Moderate Agreement"
"67","A2FJMUOKON4OCQ:3U8YCDAGXQMZ23QMGXUXNCR0U2RQ08","1",3,7,3,"50","<p style=""font-size:100px""><b>B</b></p><p style=""position: absolute; top: 30px; right: 30px; text-align:right; font-size:50px"""">N = 3</p>","B",0,73,658,1,"agree",15,17,16,18,18,"40","male","The instructions are very clear.","Slight Disagreement","Slight Agreement","Slight Agreement","Neither Agreement nor Disagreement","Moderate Agreement","Strong Agreement","Neither Agreement nor Disagreement","Moderate Agreement","Slight Agreement","Moderate Agreement","Slight Disagreement","Neither Agreement nor Disagreement","Slight Agreement","Moderate Agreement","Slight Agreement","Neither Agreement nor Disagreement","Slight Agreement","Moderate Agreement"
"68","A2FJMUOKON4OCQ:3U8YCDAGXQMZ23QMGXUXNCR0U2RQ08","1",3,8,3,"50","<p style=""font-size:100px""><b>D</b></p><p style=""position: absolute; top: 30px; right: 30px; text-align:right; font-size:50px"""">N = 3</p>","D",0,73,612,1,"agree",15,17,16,18,18,"40","male","The instructions are very clear.","Slight Disagreement","Slight Agreement","Slight Agreement","Neither Agreement nor Disagreement","Moderate Agreement","Strong Agreement","Neither Agreement nor Disagreement","Moderate Agreement","Slight Agreement","Moderate Agreement","Slight Disagreement","Neither Agreement nor Disagreement","Slight Agreement","Moderate Agreement","Slight Agreement","Neither Agreement nor Disagreement","Slight Agreement","Moderate Agreement"
"69","A2FJMUOKON4OCQ:3U8YCDAGXQMZ23QMGXUXNCR0U2RQ08","1",3,9,3,"50","<p style=""font-size:100px""><b>G</b></p><p style=""position: absolute; top: 30px; right: 30px; text-align:right; font-size:50px"""">N = 3</p>","G",0,73,580,1,"agree",15,17,16,18,18,"40","male","The instructions are very clear.","Slight Disagreement","Slight Agreement","Slight Agreement","Neither Agreement nor Disagreement","Moderate Agreement","Strong Agreement","Neither Agreement nor Disagreement","Moderate Agreement","Slight Agreement","Moderate Agreement","Slight Disagreement","Neither Agreement nor Disagreement","Slight Agreement","Moderate Agreement","Slight Agreement","Neither Agreement nor Disagreement","Slight Agreement","Moderate Agreement"
"70","A2FJMUOKON4OCQ:3U8YCDAGXQMZ23QMGXUXNCR0U2RQ08","1",3,10,3,"50","<p style=""font-size:100px""><b>B</b></p><p style=""position: absolute; top: 30px; right: 30px; text-align:right; font-size:50px"""">N = 3</p>","B",0,73,596,1,"agree",15,17,16,18,18,"40","male","The instructions are very clear.","Slight Disagreement","Slight Agreement","Slight Agreement","Neither Agreement nor Disagreement","Moderate Agreement","Strong Agreement","Neither Agreement nor Disagreement","Moderate Agreement","Slight Agreement","Moderate Agreement","Slight Disagreement","Neither Agreement nor Disagreement","Slight Agreement","Moderate Agreement","Slight Agreement","Neither Agreement nor Disagreement","Slight Agreement","Moderate Agreement"
"71","A2FJMUOKON4OCQ:3U8YCDAGXQMZ23QMGXUXNCR0U2RQ08","1",3,11,3,"50","<p style=""font-size:100px""><b>D</b></p><p style=""position: absolute; top: 30px; right: 30px; text-align:right; font-size:50px"""">N = 3</p>","D",0,73,583,1,"agree",15,17,16,18,18,"40","male","The instructions are very clear.","Slight Disagreement","Slight Agreement","Slight Agreement","Neither Agreement nor Disagreement","Moderate Agreement","Strong Agreement","Neither Agreement nor Disagreement","Moderate Agreement","Slight Agreement","Moderate Agreement","Slight Disagreement","Neither Agreement nor Disagreement","Slight Agreement","Moderate Agreement","Slight Agreement","Neither Agreement nor Disagreement","Slight Agreement","Moderate Agreement"
"72","A2FJMUOKON4OCQ:3U8YCDAGXQMZ23QMGXUXNCR0U2RQ08","1",3,12,3,"50","<p style=""font-size:100px""><b>p</b></p><p style=""position: absolute; top: 30px; right: 30px; text-align:right; font-size:50px"""">N = 3</p>","p",0,73,406,1,"agree",15,17,16,18,18,"40","male","The instructions are very clear.","Slight Disagreement","Slight Agreement","Slight Agreement","Neither Agreement nor Disagreement","Moderate Agreement","Strong Agreement","Neither Agreement nor Disagreement","Moderate Agreement","Slight Agreement","Moderate Agreement","Slight Disagreement","Neither Agreement nor Disagreement","Slight Agreement","Moderate Agreement","Slight Agreement","Neither Agreement nor Disagreement","Slight Agreement","Moderate Agreement"
"73","A2FJMUOKON4OCQ:3U8YCDAGXQMZ23QMGXUXNCR0U2RQ08","1",4,1,1,"50","<p style=""font-size:100px""><b>v</b></p><p style=""position: absolute; top: 30px; right: 30px; text-align:right; font-size:50px"""">N = 1</p>","v",0,73,661,1,"agree",18,16,17,18,18,"40","male","The instructions are very clear.","Slight Disagreement","Slight Agreement","Slight Agreement","Neither Agreement nor Disagreement","Moderate Agreement","Strong Agreement","Neither Agreement nor Disagreement","Moderate Agreement","Slight Agreement","Moderate Agreement","Slight Disagreement","Neither Agreement nor Disagreement","Slight Agreement","Moderate Agreement","Slight Agreement","Neither Agreement nor Disagreement","Slight Agreement","Moderate Agreement"
"74","A2FJMUOKON4OCQ:3U8YCDAGXQMZ23QMGXUXNCR0U2RQ08","1",4,2,1,"50","<p style=""font-size:100px""><b>T</b></p><p style=""position: absolute; top: 30px; right: 30px; text-align:right; font-size:50px"""">N = 1</p>","T",0,73,635,1,"agree",18,16,17,18,18,"40","male","The instructions are very clear.","Slight Disagreement","Slight Agreement","Slight Agreement","Neither Agreement nor Disagreement","Moderate Agreement","Strong Agreement","Neither Agreement nor Disagreement","Moderate Agreement","Slight Agreement","Moderate Agreement","Slight Disagreement","Neither Agreement nor Disagreement","Slight Agreement","Moderate Agreement","Slight Agreement","Neither Agreement nor Disagreement","Slight Agreement","Moderate Agreement"
"75","A2FJMUOKON4OCQ:3U8YCDAGXQMZ23QMGXUXNCR0U2RQ08","1",4,3,1,"50","<p style=""font-size:100px""><b>D</b></p><p style=""position: absolute; top: 30px; right: 30px; text-align:right; font-size:50px"""">N = 1</p>","D",0,73,231,1,"agree",18,16,17,18,18,"40","male","The instructions are very clear.","Slight Disagreement","Slight Agreement","Slight Agreement","Neither Agreement nor Disagreement","Moderate Agreement","Strong Agreement","Neither Agreement nor Disagreement","Moderate Agreement","Slight Agreement","Moderate Agreement","Slight Disagreement","Neither Agreement nor Disagreement","Slight Agreement","Moderate Agreement","Slight Agreement","Neither Agreement nor Disagreement","Slight Agreement","Moderate Agreement"
"76","A2FJMUOKON4OCQ:3U8YCDAGXQMZ23QMGXUXNCR0U2RQ08","1",4,4,1,"50","<p style=""font-size:100px""><b>D</b></p><p style=""position: absolute; top: 30px; right: 30px; text-align:right; font-size:50px"""">N = 1</p>","D",0,73,218,1,"agree",18,16,17,18,18,"40","male","The instructions are very clear.","Slight Disagreement","Slight Agreement","Slight Agreement","Neither Agreement nor Disagreement","Moderate Agreement","Strong Agreement","Neither Agreement nor Disagreement","Moderate Agreement","Slight Agreement","Moderate Agreement","Slight Disagreement","Neither Agreement nor Disagreement","Slight Agreement","Moderate Agreement","Slight Agreement","Neither Agreement nor Disagreement","Slight Agreement","Moderate Agreement"
"77","A2FJMUOKON4OCQ:3U8YCDAGXQMZ23QMGXUXNCR0U2RQ08","1",4,5,1,"50","<p style=""font-size:100px""><b>D</b></p><p style=""position: absolute; top: 30px; right: 30px; text-align:right; font-size:50px"""">N = 1</p>","D",0,73,477,1,"agree",18,16,17,18,18,"40","male","The instructions are very clear.","Slight Disagreement","Slight Agreement","Slight Agreement","Neither Agreement nor Disagreement","Moderate Agreement","Strong Agreement","Neither Agreement nor Disagreement","Moderate Agreement","Slight Agreement","Moderate Agreement","Slight Disagreement","Neither Agreement nor Disagreement","Slight Agreement","Moderate Agreement","Slight Agreement","Neither Agreement nor Disagreement","Slight Agreement","Moderate Agreement"
"78","A2FJMUOKON4OCQ:3U8YCDAGXQMZ23QMGXUXNCR0U2RQ08","1",4,6,1,"50","<p style=""font-size:100px""><b>v</b></p><p style=""position: absolute; top: 30px; right: 30px; text-align:right; font-size:50px"""">N = 1</p>","v",0,73,572,1,"agree",18,16,17,18,18,"40","male","The instructions are very clear.","Slight Disagreement","Slight Agreement","Slight Agreement","Neither Agreement nor Disagreement","Moderate Agreement","Strong Agreement","Neither Agreement nor Disagreement","Moderate Agreement","Slight Agreement","Moderate Agreement","Slight Disagreement","Neither Agreement nor Disagreement","Slight Agreement","Moderate Agreement","Slight Agreement","Neither Agreement nor Disagreement","Slight Agreement","Moderate Agreement"
"79","A2FJMUOKON4OCQ:3U8YCDAGXQMZ23QMGXUXNCR0U2RQ08","1",4,7,1,"50","<p style=""font-size:100px""><b>d</b></p><p style=""position: absolute; top: 30px; right: 30px; text-align:right; font-size:50px"""">N = 1</p>","d",0,73,559,1,"agree",18,16,17,18,18,"40","male","The instructions are very clear.","Slight Disagreement","Slight Agreement","Slight Agreement","Neither Agreement nor Disagreement","Moderate Agreement","Strong Agreement","Neither Agreement nor Disagreement","Moderate Agreement","Slight Agreement","Moderate Agreement","Slight Disagreement","Neither Agreement nor Disagreement","Slight Agreement","Moderate Agreement","Slight Agreement","Neither Agreement nor Disagreement","Slight Agreement","Moderate Agreement"
"80","A2FJMUOKON4OCQ:3U8YCDAGXQMZ23QMGXUXNCR0U2RQ08","1",4,8,1,"50","<p style=""font-size:100px""><b>v</b></p><p style=""position: absolute; top: 30px; right: 30px; text-align:right; font-size:50px"""">N = 1</p>","v",0,73,575,1,"agree",18,16,17,18,18,"40","male","The instructions are very clear.","Slight Disagreement","Slight Agreement","Slight Agreement","Neither Agreement nor Disagreement","Moderate Agreement","Strong Agreement","Neither Agreement nor Disagreement","Moderate Agreement","Slight Agreement","Moderate Agreement","Slight Disagreement","Neither Agreement nor Disagreement","Slight Agreement","Moderate Agreement","Slight Agreement","Neither Agreement nor Disagreement","Slight Agreement","Moderate Agreement"
"81","A2FJMUOKON4OCQ:3U8YCDAGXQMZ23QMGXUXNCR0U2RQ08","1",4,9,1,"50","<p style=""font-size:100px""><b>v</b></p><p style=""position: absolute; top: 30px; right: 30px; text-align:right; font-size:50px"""">N = 1</p>","v",0,73,545,1,"agree",18,16,17,18,18,"40","male","The instructions are very clear.","Slight Disagreement","Slight Agreement","Slight Agreement","Neither Agreement nor Disagreement","Moderate Agreement","Strong Agreement","Neither Agreement nor Disagreement","Moderate Agreement","Slight Agreement","Moderate Agreement","Slight Disagreement","Neither Agreement nor Disagreement","Slight Agreement","Moderate Agreement","Slight Agreement","Neither Agreement nor Disagreement","Slight Agreement","Moderate Agreement"
"82","A2FJMUOKON4OCQ:3U8YCDAGXQMZ23QMGXUXNCR0U2RQ08","1",4,10,1,"50","<p style=""font-size:100px""><b>v</b></p><p style=""position: absolute; top: 30px; right: 30px; text-align:right; font-size:50px"""">N = 1</p>","v",0,73,550,1,"agree",18,16,17,18,18,"40","male","The instructions are very clear.","Slight Disagreement","Slight Agreement","Slight Agreement","Neither Agreement nor Disagreement","Moderate Agreement","Strong Agreement","Neither Agreement nor Disagreement","Moderate Agreement","Slight Agreement","Moderate Agreement","Slight Disagreement","Neither Agreement nor Disagreement","Slight Agreement","Moderate Agreement","Slight Agreement","Neither Agreement nor Disagreement","Slight Agreement","Moderate Agreement"
"83","A2FJMUOKON4OCQ:3U8YCDAGXQMZ23QMGXUXNCR0U2RQ08","1",4,11,1,"50","<p style=""font-size:100px""><b>p</b></p><p style=""position: absolute; top: 30px; right: 30px; text-align:right; font-size:50px"""">N = 1</p>","p",0,73,581,1,"agree",18,16,17,18,18,"40","male","The instructions are very clear.","Slight Disagreement","Slight Agreement","Slight Agreement","Neither Agreement nor Disagreement","Moderate Agreement","Strong Agreement","Neither Agreement nor Disagreement","Moderate Agreement","Slight Agreement","Moderate Agreement","Slight Disagreement","Neither Agreement nor Disagreement","Slight Agreement","Moderate Agreement","Slight Agreement","Neither Agreement nor Disagreement","Slight Agreement","Moderate Agreement"
"84","A2FJMUOKON4OCQ:3U8YCDAGXQMZ23QMGXUXNCR0U2RQ08","1",4,12,1,"50","<p style=""font-size:100px""><b>t</b></p><p style=""position: absolute; top: 30px; right: 30px; text-align:right; font-size:50px"""">N = 1</p>","t",0,73,501,1,"agree",18,16,17,18,18,"40","male","The instructions are very clear.","Slight Disagreement","Slight Agreement","Slight Agreement","Neither Agreement nor Disagreement","Moderate Agreement","Strong Agreement","Neither Agreement nor Disagreement","Moderate Agreement","Slight Agreement","Moderate Agreement","Slight Disagreement","Neither Agreement nor Disagreement","Slight Agreement","Moderate Agreement","Slight Agreement","Neither Agreement nor Disagreement","Slight Agreement","Moderate Agreement"
"85","A2FJMUOKON4OCQ:3U8YCDAGXQMZ23QMGXUXNCR0U2RQ08","1",5,1,2,"5","<p style=""font-size:100px""><b>d</b></p><p style=""position: absolute; top: 30px; right: 30px; text-align:right; font-size:50px"""">N = 2</p>","d",0,73,636,1,"agree",17,17,16,18,16,"40","male","The instructions are very clear.","Slight Disagreement","Slight Agreement","Slight Agreement","Neither Agreement nor Disagreement","Moderate Agreement","Strong Agreement","Neither Agreement nor Disagreement","Moderate Agreement","Slight Agreement","Moderate Agreement","Slight Disagreement","Neither Agreement nor Disagreement","Slight Agreement","Moderate Agreement","Slight Agreement","Neither Agreement nor Disagreement","Slight Agreement","Moderate Agreement"
"86","A2FJMUOKON4OCQ:3U8YCDAGXQMZ23QMGXUXNCR0U2RQ08","1",5,2,2,"5","<p style=""font-size:100px""><b>g</b></p><p style=""position: absolute; top: 30px; right: 30px; text-align:right; font-size:50px"""">N = 2</p>","g",0,73,461,1,"agree",17,17,16,18,16,"40","male","The instructions are very clear.","Slight Disagreement","Slight Agreement","Slight Agreement","Neither Agreement nor Disagreement","Moderate Agreement","Strong Agreement","Neither Agreement nor Disagreement","Moderate Agreement","Slight Agreement","Moderate Agreement","Slight Disagreement","Neither Agreement nor Disagreement","Slight Agreement","Moderate Agreement","Slight Agreement","Neither Agreement nor Disagreement","Slight Agreement","Moderate Agreement"
"87","A2FJMUOKON4OCQ:3U8YCDAGXQMZ23QMGXUXNCR0U2RQ08","1",5,3,2,"5","<p style=""font-size:100px""><b>d</b></p><p style=""position: absolute; top: 30px; right: 30px; text-align:right; font-size:50px"""">N = 2</p>","d",0,73,560,1,"agree",17,17,16,18,16,"40","male","The instructions are very clear.","Slight Disagreement","Slight Agreement","Slight Agreement","Neither Agreement nor Disagreement","Moderate Agreement","Strong Agreement","Neither Agreement nor Disagreement","Moderate Agreement","Slight Agreement","Moderate Agreement","Slight Disagreement","Neither Agreement nor Disagreement","Slight Agreement","Moderate Agreement","Slight Agreement","Neither Agreement nor Disagreement","Slight Agreement","Moderate Agreement"
"88","A2FJMUOKON4OCQ:3U8YCDAGXQMZ23QMGXUXNCR0U2RQ08","1",5,4,2,"5","<p style=""font-size:100px""><b>v</b></p><p style=""position: absolute; top: 30px; right: 30px; text-align:right; font-size:50px"""">N = 2</p>","v",0,73,354,1,"agree",17,17,16,18,16,"40","male","The instructions are very clear.","Slight Disagreement","Slight Agreement","Slight Agreement","Neither Agreement nor Disagreement","Moderate Agreement","Strong Agreement","Neither Agreement nor Disagreement","Moderate Agreement","Slight Agreement","Moderate Agreement","Slight Disagreement","Neither Agreement nor Disagreement","Slight Agreement","Moderate Agreement","Slight Agreement","Neither Agreement nor Disagreement","Slight Agreement","Moderate Agreement"
"89","A2FJMUOKON4OCQ:3U8YCDAGXQMZ23QMGXUXNCR0U2RQ08","1",5,5,2,"5","<p style=""font-size:100px""><b>d</b></p><p style=""position: absolute; top: 30px; right: 30px; text-align:right; font-size:50px"""">N = 2</p>","d",0,73,68,1,"agree",17,17,16,18,16,"40","male","The instructions are very clear.","Slight Disagreement","Slight Agreement","Slight Agreement","Neither Agreement nor Disagreement","Moderate Agreement","Strong Agreement","Neither Agreement nor Disagreement","Moderate Agreement","Slight Agreement","Moderate Agreement","Slight Disagreement","Neither Agreement nor Disagreement","Slight Agreement","Moderate Agreement","Slight Agreement","Neither Agreement nor Disagreement","Slight Agreement","Moderate Agreement"
"90","A2FJMUOKON4OCQ:3U8YCDAGXQMZ23QMGXUXNCR0U2RQ08","1",5,6,2,"5","<p style=""font-size:100px""><b>T</b></p><p style=""position: absolute; top: 30px; right: 30px; text-align:right; font-size:50px"""">N = 2</p>","T",0,73,202,1,"agree",17,17,16,18,16,"40","male","The instructions are very clear.","Slight Disagreement","Slight Agreement","Slight Agreement","Neither Agreement nor Disagreement","Moderate Agreement","Strong Agreement","Neither Agreement nor Disagreement","Moderate Agreement","Slight Agreement","Moderate Agreement","Slight Disagreement","Neither Agreement nor Disagreement","Slight Agreement","Moderate Agreement","Slight Agreement","Neither Agreement nor Disagreement","Slight Agreement","Moderate Agreement"
"91","A2FJMUOKON4OCQ:3U8YCDAGXQMZ23QMGXUXNCR0U2RQ08","1",5,7,2,"5","<p style=""font-size:100px""><b>d</b></p><p style=""position: absolute; top: 30px; right: 30px; text-align:right; font-size:50px"""">N = 2</p>","d",0,73,523,1,"agree",17,17,16,18,16,"40","male","The instructions are very clear.","Slight Disagreement","Slight Agreement","Slight Agreement","Neither Agreement nor Disagreement","Moderate Agreement","Strong Agreement","Neither Agreement nor Disagreement","Moderate Agreement","Slight Agreement","Moderate Agreement","Slight Disagreement","Neither Agreement nor Disagreement","Slight Agreement","Moderate Agreement","Slight Agreement","Neither Agreement nor Disagreement","Slight Agreement","Moderate Agreement"
"92","A2FJMUOKON4OCQ:3U8YCDAGXQMZ23QMGXUXNCR0U2RQ08","1",5,8,2,"5","<p style=""font-size:100px""><b>d</b></p><p style=""position: absolute; top: 30px; right: 30px; text-align:right; font-size:50px"""">N = 2</p>","d",0,73,544,1,"agree",17,17,16,18,16,"40","male","The instructions are very clear.","Slight Disagreement","Slight Agreement","Slight Agreement","Neither Agreement nor Disagreement","Moderate Agreement","Strong Agreement","Neither Agreement nor Disagreement","Moderate Agreement","Slight Agreement","Moderate Agreement","Slight Disagreement","Neither Agreement nor Disagreement","Slight Agreement","Moderate Agreement","Slight Agreement","Neither Agreement nor Disagreement","Slight Agreement","Moderate Agreement"
"93","A2FJMUOKON4OCQ:3U8YCDAGXQMZ23QMGXUXNCR0U2RQ08","1",5,9,2,"5","<p style=""font-size:100px""><b>d</b></p><p style=""position: absolute; top: 30px; right: 30px; text-align:right; font-size:50px"""">N = 2</p>","d",0,73,544,1,"agree",17,17,16,18,16,"40","male","The instructions are very clear.","Slight Disagreement","Slight Agreement","Slight Agreement","Neither Agreement nor Disagreement","Moderate Agreement","Strong Agreement","Neither Agreement nor Disagreement","Moderate Agreement","Slight Agreement","Moderate Agreement","Slight Disagreement","Neither Agreement nor Disagreement","Slight Agreement","Moderate Agreement","Slight Agreement","Neither Agreement nor Disagreement","Slight Agreement","Moderate Agreement"
"94","A2FJMUOKON4OCQ:3U8YCDAGXQMZ23QMGXUXNCR0U2RQ08","1",5,10,2,"5","<p style=""font-size:100px""><b>v</b></p><p style=""position: absolute; top: 30px; right: 30px; text-align:right; font-size:50px"""">N = 2</p>","v",0,73,641,1,"agree",17,17,16,18,16,"40","male","The instructions are very clear.","Slight Disagreement","Slight Agreement","Slight Agreement","Neither Agreement nor Disagreement","Moderate Agreement","Strong Agreement","Neither Agreement nor Disagreement","Moderate Agreement","Slight Agreement","Moderate Agreement","Slight Disagreement","Neither Agreement nor Disagreement","Slight Agreement","Moderate Agreement","Slight Agreement","Neither Agreement nor Disagreement","Slight Agreement","Moderate Agreement"
"95","A2FJMUOKON4OCQ:3U8YCDAGXQMZ23QMGXUXNCR0U2RQ08","1",5,11,2,"5","<p style=""font-size:100px""><b>b</b></p><p style=""position: absolute; top: 30px; right: 30px; text-align:right; font-size:50px"""">N = 2</p>","b",0,73,546,1,"agree",17,17,16,18,16,"40","male","The instructions are very clear.","Slight Disagreement","Slight Agreement","Slight Agreement","Neither Agreement nor Disagreement","Moderate Agreement","Strong Agreement","Neither Agreement nor Disagreement","Moderate Agreement","Slight Agreement","Moderate Agreement","Slight Disagreement","Neither Agreement nor Disagreement","Slight Agreement","Moderate Agreement","Slight Agreement","Neither Agreement nor Disagreement","Slight Agreement","Moderate Agreement"
"96","A2FJMUOKON4OCQ:3U8YCDAGXQMZ23QMGXUXNCR0U2RQ08","1",5,12,2,"5","<p style=""font-size:100px""><b>g</b></p><p style=""position: absolute; top: 30px; right: 30px; text-align:right; font-size:50px"""">N = 2</p>","g",0,73,690,1,"agree",17,17,16,18,16,"40","male","The instructions are very clear.","Slight Disagreement","Slight Agreement","Slight Agreement","Neither Agreement nor Disagreement","Moderate Agreement","Strong Agreement","Neither Agreement nor Disagreement","Moderate Agreement","Slight Agreement","Moderate Agreement","Slight Disagreement","Neither Agreement nor Disagreement","Slight Agreement","Moderate Agreement","Slight Agreement","Neither Agreement nor Disagreement","Slight Agreement","Moderate Agreement"
"97","A2FJMUOKON4OCQ:3U8YCDAGXQMZ23QMGXUXNCR0U2RQ08","1",6,1,2,"50","<p style=""font-size:100px""><b>d</b></p><p style=""position: absolute; top: 30px; right: 30px; text-align:right; font-size:50px"""">N = 2</p>","d",0,73,851,1,"agree",15,18,18,16,20,"40","male","The instructions are very clear.","Slight Disagreement","Slight Agreement","Slight Agreement","Neither Agreement nor Disagreement","Moderate Agreement","Strong Agreement","Neither Agreement nor Disagreement","Moderate Agreement","Slight Agreement","Moderate Agreement","Slight Disagreement","Neither Agreement nor Disagreement","Slight Agreement","Moderate Agreement","Slight Agreement","Neither Agreement nor Disagreement","Slight Agreement","Moderate Agreement"
"98","A2FJMUOKON4OCQ:3U8YCDAGXQMZ23QMGXUXNCR0U2RQ08","1",6,2,2,"50","<p style=""font-size:100px""><b>V</b></p><p style=""position: absolute; top: 30px; right: 30px; text-align:right; font-size:50px"""">N = 2</p>","V",0,73,868,1,"agree",15,18,18,16,20,"40","male","The instructions are very clear.","Slight Disagreement","Slight Agreement","Slight Agreement","Neither Agreement nor Disagreement","Moderate Agreement","Strong Agreement","Neither Agreement nor Disagreement","Moderate Agreement","Slight Agreement","Moderate Agreement","Slight Disagreement","Neither Agreement nor Disagreement","Slight Agreement","Moderate Agreement","Slight Agreement","Neither Agreement nor Disagreement","Slight Agreement","Moderate Agreement"
"99","A2FJMUOKON4OCQ:3U8YCDAGXQMZ23QMGXUXNCR0U2RQ08","1",6,3,2,"50","<p style=""font-size:100px""><b>t</b></p><p style=""position: absolute; top: 30px; right: 30px; text-align:right; font-size:50px"""">N = 2</p>","t",0,73,692,1,"agree",15,18,18,16,20,"40","male","The instructions are very clear.","Slight Disagreement","Slight Agreement","Slight Agreement","Neither Agreement nor Disagreement","Moderate Agreement","Strong Agreement","Neither Agreement nor Disagreement","Moderate Agreement","Slight Agreement","Moderate Agreement","Slight Disagreement","Neither Agreement nor Disagreement","Slight Agreement","Moderate Agreement","Slight Agreement","Neither Agreement nor Disagreement","Slight Agreement","Moderate Agreement"
"100","A2FJMUOKON4OCQ:3U8YCDAGXQMZ23QMGXUXNCR0U2RQ08","1",6,4,2,"50","<p style=""font-size:100px""><b>V</b></p><p style=""position: absolute; top: 30px; right: 30px; text-align:right; font-size:50px"""">N = 2</p>","V",0,73,724,1,"agree",15,18,18,16,20,"40","male","The instructions are very clear.","Slight Disagreement","Slight Agreement","Slight Agreement","Neither Agreement nor Disagreement","Moderate Agreement","Strong Agreement","Neither Agreement nor Disagreement","Moderate Agreement","Slight Agreement","Moderate Agreement","Slight Disagreement","Neither Agreement nor Disagreement","Slight Agreement","Moderate Agreement","Slight Agreement","Neither Agreement nor Disagreement","Slight Agreement","Moderate Agreement"
"101","A2FJMUOKON4OCQ:3U8YCDAGXQMZ23QMGXUXNCR0U2RQ08","1",6,5,2,"50","<p style=""font-size:100px""><b>p</b></p><p style=""position: absolute; top: 30px; right: 30px; text-align:right; font-size:50px"""">N = 2</p>","p",0,73,805,1,"agree",15,18,18,16,20,"40","male","The instructions are very clear.","Slight Disagreement","Slight Agreement","Slight Agreement","Neither Agreement nor Disagreement","Moderate Agreement","Strong Agreement","Neither Agreement nor Disagreement","Moderate Agreement","Slight Agreement","Moderate Agreement","Slight Disagreement","Neither Agreement nor Disagreement","Slight Agreement","Moderate Agreement","Slight Agreement","Neither Agreement nor Disagreement","Slight Agreement","Moderate Agreement"
"102","A2FJMUOKON4OCQ:3U8YCDAGXQMZ23QMGXUXNCR0U2RQ08","1",6,6,2,"50","<p style=""font-size:100px""><b>b</b></p><p style=""position: absolute; top: 30px; right: 30px; text-align:right; font-size:50px"""">N = 2</p>","b",0,73,839,1,"agree",15,18,18,16,20,"40","male","The instructions are very clear.","Slight Disagreement","Slight Agreement","Slight Agreement","Neither Agreement nor Disagreement","Moderate Agreement","Strong Agreement","Neither Agreement nor Disagreement","Moderate Agreement","Slight Agreement","Moderate Agreement","Slight Disagreement","Neither Agreement nor Disagreement","Slight Agreement","Moderate Agreement","Slight Agreement","Neither Agreement nor Disagreement","Slight Agreement","Moderate Agreement"
"103","A2FJMUOKON4OCQ:3U8YCDAGXQMZ23QMGXUXNCR0U2RQ08","1",6,7,2,"50","<p style=""font-size:100px""><b>p</b></p><p style=""position: absolute; top: 30px; right: 30px; text-align:right; font-size:50px"""">N = 2</p>","p",0,73,842,1,"agree",15,18,18,16,20,"40","male","The instructions are very clear.","Slight Disagreement","Slight Agreement","Slight Agreement","Neither Agreement nor Disagreement","Moderate Agreement","Strong Agreement","Neither Agreement nor Disagreement","Moderate Agreement","Slight Agreement","Moderate Agreement","Slight Disagreement","Neither Agreement nor Disagreement","Slight Agreement","Moderate Agreement","Slight Agreement","Neither Agreement nor Disagreement","Slight Agreement","Moderate Agreement"
"104","A2FJMUOKON4OCQ:3U8YCDAGXQMZ23QMGXUXNCR0U2RQ08","1",6,8,2,"50","<p style=""font-size:100px""><b>b</b></p><p style=""position: absolute; top: 30px; right: 30px; text-align:right; font-size:50px"""">N = 2</p>","b",0,69,956,0,"agree",15,18,18,16,20,"40","male","The instructions are very clear.","Slight Disagreement","Slight Agreement","Slight Agreement","Neither Agreement nor Disagreement","Moderate Agreement","Strong Agreement","Neither Agreement nor Disagreement","Moderate Agreement","Slight Agreement","Moderate Agreement","Slight Disagreement","Neither Agreement nor Disagreement","Slight Agreement","Moderate Agreement","Slight Agreement","Neither Agreement nor Disagreement","Slight Agreement","Moderate Agreement"
"105","A2FJMUOKON4OCQ:3U8YCDAGXQMZ23QMGXUXNCR0U2RQ08","1",6,9,2,"50","<p style=""font-size:100px""><b>T</b></p><p style=""position: absolute; top: 30px; right: 30px; text-align:right; font-size:50px"""">N = 2</p>","T",0,73,814,1,"agree",15,18,18,16,20,"40","male","The instructions are very clear.","Slight Disagreement","Slight Agreement","Slight Agreement","Neither Agreement nor Disagreement","Moderate Agreement","Strong Agreement","Neither Agreement nor Disagreement","Moderate Agreement","Slight Agreement","Moderate Agreement","Slight Disagreement","Neither Agreement nor Disagreement","Slight Agreement","Moderate Agreement","Slight Agreement","Neither Agreement nor Disagreement","Slight Agreement","Moderate Agreement"
"106","A2FJMUOKON4OCQ:3U8YCDAGXQMZ23QMGXUXNCR0U2RQ08","1",6,10,2,"50","<p style=""font-size:100px""><b>p</b></p><p style=""position: absolute; top: 30px; right: 30px; text-align:right; font-size:50px"""">N = 2</p>","p",0,NA,NA,0,"agree",15,18,18,16,20,"40","male","The instructions are very clear.","Slight Disagreement","Slight Agreement","Slight Agreement","Neither Agreement nor Disagreement","Moderate Agreement","Strong Agreement","Neither Agreement nor Disagreement","Moderate Agreement","Slight Agreement","Moderate Agreement","Slight Disagreement","Neither Agreement nor Disagreement","Slight Agreement","Moderate Agreement","Slight Agreement","Neither Agreement nor Disagreement","Slight Agreement","Moderate Agreement"
"107","A2FJMUOKON4OCQ:3U8YCDAGXQMZ23QMGXUXNCR0U2RQ08","1",6,11,2,"50","<p style=""font-size:100px""><b>T</b></p><p style=""position: absolute; top: 30px; right: 30px; text-align:right; font-size:50px"""">N = 2</p>","T",0,73,822,1,"agree",15,18,18,16,20,"40","male","The instructions are very clear.","Slight Disagreement","Slight Agreement","Slight Agreement","Neither Agreement nor Disagreement","Moderate Agreement","Strong Agreement","Neither Agreement nor Disagreement","Moderate Agreement","Slight Agreement","Moderate Agreement","Slight Disagreement","Neither Agreement nor Disagreement","Slight Agreement","Moderate Agreement","Slight Agreement","Neither Agreement nor Disagreement","Slight Agreement","Moderate Agreement"
"108","A2FJMUOKON4OCQ:3U8YCDAGXQMZ23QMGXUXNCR0U2RQ08","1",6,12,2,"50","<p style=""font-size:100px""><b>t</b></p><p style=""position: absolute; top: 30px; right: 30px; text-align:right; font-size:50px"""">N = 2</p>","t",0,73,681,1,"agree",15,18,18,16,20,"40","male","The instructions are very clear.","Slight Disagreement","Slight Agreement","Slight Agreement","Neither Agreement nor Disagreement","Moderate Agreement","Strong Agreement","Neither Agreement nor Disagreement","Moderate Agreement","Slight Agreement","Moderate Agreement","Slight Disagreement","Neither Agreement nor Disagreement","Slight Agreement","Moderate Agreement","Slight Agreement","Neither Agreement nor Disagreement","Slight Agreement","Moderate Agreement"
"109","A2FJMUOKON4OCQ:3U8YCDAGXQMZ23QMGXUXNCR0U2RQ08","2",7,1,2,"5","<p style=""font-size:100px""><b>T</b></p><p style=""position: absolute; top: 30px; right: 30px; text-align:right; font-size:50px"""">N = 2</p>","T",0,73,910,1,"agree",16,19,19,17,17,"40","male","The instructions are very clear.","Slight Disagreement","Slight Agreement","Slight Agreement","Neither Agreement nor Disagreement","Moderate Agreement","Strong Agreement","Neither Agreement nor Disagreement","Moderate Agreement","Slight Agreement","Moderate Agreement","Slight Disagreement","Neither Agreement nor Disagreement","Slight Agreement","Moderate Agreement","Slight Agreement","Neither Agreement nor Disagreement","Slight Agreement","Moderate Agreement"
"110","A2FJMUOKON4OCQ:3U8YCDAGXQMZ23QMGXUXNCR0U2RQ08","2",7,2,2,"5","<p style=""font-size:100px""><b>v</b></p><p style=""position: absolute; top: 30px; right: 30px; text-align:right; font-size:50px"""">N = 2</p>","v",0,NA,NA,0,"agree",16,19,19,17,17,"40","male","The instructions are very clear.","Slight Disagreement","Slight Agreement","Slight Agreement","Neither Agreement nor Disagreement","Moderate Agreement","Strong Agreement","Neither Agreement nor Disagreement","Moderate Agreement","Slight Agreement","Moderate Agreement","Slight Disagreement","Neither Agreement nor Disagreement","Slight Agreement","Moderate Agreement","Slight Agreement","Neither Agreement nor Disagreement","Slight Agreement","Moderate Agreement"
"111","A2FJMUOKON4OCQ:3U8YCDAGXQMZ23QMGXUXNCR0U2RQ08","2",7,3,2,"5","<p style=""font-size:100px""><b>p</b></p><p style=""position: absolute; top: 30px; right: 30px; text-align:right; font-size:50px"""">N = 2</p>","p",0,73,781,1,"agree",16,19,19,17,17,"40","male","The instructions are very clear.","Slight Disagreement","Slight Agreement","Slight Agreement","Neither Agreement nor Disagreement","Moderate Agreement","Strong Agreement","Neither Agreement nor Disagreement","Moderate Agreement","Slight Agreement","Moderate Agreement","Slight Disagreement","Neither Agreement nor Disagreement","Slight Agreement","Moderate Agreement","Slight Agreement","Neither Agreement nor Disagreement","Slight Agreement","Moderate Agreement"
"112","A2FJMUOKON4OCQ:3U8YCDAGXQMZ23QMGXUXNCR0U2RQ08","2",7,4,2,"5","<p style=""font-size:100px""><b>v</b></p><p style=""position: absolute; top: 30px; right: 30px; text-align:right; font-size:50px"""">N = 2</p>","v",0,73,852,1,"agree",16,19,19,17,17,"40","male","The instructions are very clear.","Slight Disagreement","Slight Agreement","Slight Agreement","Neither Agreement nor Disagreement","Moderate Agreement","Strong Agreement","Neither Agreement nor Disagreement","Moderate Agreement","Slight Agreement","Moderate Agreement","Slight Disagreement","Neither Agreement nor Disagreement","Slight Agreement","Moderate Agreement","Slight Agreement","Neither Agreement nor Disagreement","Slight Agreement","Moderate Agreement"
"113","A2FJMUOKON4OCQ:3U8YCDAGXQMZ23QMGXUXNCR0U2RQ08","2",7,5,2,"5","<p style=""font-size:100px""><b>B</b></p><p style=""position: absolute; top: 30px; right: 30px; text-align:right; font-size:50px"""">N = 2</p>","B",0,73,582,1,"agree",16,19,19,17,17,"40","male","The instructions are very clear.","Slight Disagreement","Slight Agreement","Slight Agreement","Neither Agreement nor Disagreement","Moderate Agreement","Strong Agreement","Neither Agreement nor Disagreement","Moderate Agreement","Slight Agreement","Moderate Agreement","Slight Disagreement","Neither Agreement nor Disagreement","Slight Agreement","Moderate Agreement","Slight Agreement","Neither Agreement nor Disagreement","Slight Agreement","Moderate Agreement"
"114","A2FJMUOKON4OCQ:3U8YCDAGXQMZ23QMGXUXNCR0U2RQ08","2",7,6,2,"5","<p style=""font-size:100px""><b>t</b></p><p style=""position: absolute; top: 30px; right: 30px; text-align:right; font-size:50px"""">N = 2</p>","t",0,73,613,1,"agree",16,19,19,17,17,"40","male","The instructions are very clear.","Slight Disagreement","Slight Agreement","Slight Agreement","Neither Agreement nor Disagreement","Moderate Agreement","Strong Agreement","Neither Agreement nor Disagreement","Moderate Agreement","Slight Agreement","Moderate Agreement","Slight Disagreement","Neither Agreement nor Disagreement","Slight Agreement","Moderate Agreement","Slight Agreement","Neither Agreement nor Disagreement","Slight Agreement","Moderate Agreement"
"115","A2FJMUOKON4OCQ:3U8YCDAGXQMZ23QMGXUXNCR0U2RQ08","2",7,7,2,"5","<p style=""font-size:100px""><b>B</b></p><p style=""position: absolute; top: 30px; right: 30px; text-align:right; font-size:50px"""">N = 2</p>","B",0,73,559,1,"agree",16,19,19,17,17,"40","male","The instructions are very clear.","Slight Disagreement","Slight Agreement","Slight Agreement","Neither Agreement nor Disagreement","Moderate Agreement","Strong Agreement","Neither Agreement nor Disagreement","Moderate Agreement","Slight Agreement","Moderate Agreement","Slight Disagreement","Neither Agreement nor Disagreement","Slight Agreement","Moderate Agreement","Slight Agreement","Neither Agreement nor Disagreement","Slight Agreement","Moderate Agreement"
"116","A2FJMUOKON4OCQ:3U8YCDAGXQMZ23QMGXUXNCR0U2RQ08","2",7,8,2,"5","<p style=""font-size:100px""><b>p</b></p><p style=""position: absolute; top: 30px; right: 30px; text-align:right; font-size:50px"""">N = 2</p>","p",0,73,629,1,"agree",16,19,19,17,17,"40","male","The instructions are very clear.","Slight Disagreement","Slight Agreement","Slight Agreement","Neither Agreement nor Disagreement","Moderate Agreement","Strong Agreement","Neither Agreement nor Disagreement","Moderate Agreement","Slight Agreement","Moderate Agreement","Slight Disagreement","Neither Agreement nor Disagreement","Slight Agreement","Moderate Agreement","Slight Agreement","Neither Agreement nor Disagreement","Slight Agreement","Moderate Agreement"
"117","A2FJMUOKON4OCQ:3U8YCDAGXQMZ23QMGXUXNCR0U2RQ08","2",7,9,2,"5","<p style=""font-size:100px""><b>T</b></p><p style=""position: absolute; top: 30px; right: 30px; text-align:right; font-size:50px"""">N = 2</p>","T",0,73,602,1,"agree",16,19,19,17,17,"40","male","The instructions are very clear.","Slight Disagreement","Slight Agreement","Slight Agreement","Neither Agreement nor Disagreement","Moderate Agreement","Strong Agreement","Neither Agreement nor Disagreement","Moderate Agreement","Slight Agreement","Moderate Agreement","Slight Disagreement","Neither Agreement nor Disagreement","Slight Agreement","Moderate Agreement","Slight Agreement","Neither Agreement nor Disagreement","Slight Agreement","Moderate Agreement"
"118","A2FJMUOKON4OCQ:3U8YCDAGXQMZ23QMGXUXNCR0U2RQ08","2",7,10,2,"5","<p style=""font-size:100px""><b>p</b></p><p style=""position: absolute; top: 30px; right: 30px; text-align:right; font-size:50px"""">N = 2</p>","p",0,73,561,1,"agree",16,19,19,17,17,"40","male","The instructions are very clear.","Slight Disagreement","Slight Agreement","Slight Agreement","Neither Agreement nor Disagreement","Moderate Agreement","Strong Agreement","Neither Agreement nor Disagreement","Moderate Agreement","Slight Agreement","Moderate Agreement","Slight Disagreement","Neither Agreement nor Disagreement","Slight Agreement","Moderate Agreement","Slight Agreement","Neither Agreement nor Disagreement","Slight Agreement","Moderate Agreement"
"119","A2FJMUOKON4OCQ:3U8YCDAGXQMZ23QMGXUXNCR0U2RQ08","2",7,11,2,"5","<p style=""font-size:100px""><b>v</b></p><p style=""position: absolute; top: 30px; right: 30px; text-align:right; font-size:50px"""">N = 2</p>","v",0,73,656,1,"agree",16,19,19,17,17,"40","male","The instructions are very clear.","Slight Disagreement","Slight Agreement","Slight Agreement","Neither Agreement nor Disagreement","Moderate Agreement","Strong Agreement","Neither Agreement nor Disagreement","Moderate Agreement","Slight Agreement","Moderate Agreement","Slight Disagreement","Neither Agreement nor Disagreement","Slight Agreement","Moderate Agreement","Slight Agreement","Neither Agreement nor Disagreement","Slight Agreement","Moderate Agreement"
"120","A2FJMUOKON4OCQ:3U8YCDAGXQMZ23QMGXUXNCR0U2RQ08","2",7,12,2,"5","<p style=""font-size:100px""><b>p</b></p><p style=""position: absolute; top: 30px; right: 30px; text-align:right; font-size:50px"""">N = 2</p>","p",0,73,563,1,"agree",16,19,19,17,17,"40","male","The instructions are very clear.","Slight Disagreement","Slight Agreement","Slight Agreement","Neither Agreement nor Disagreement","Moderate Agreement","Strong Agreement","Neither Agreement nor Disagreement","Moderate Agreement","Slight Agreement","Moderate Agreement","Slight Disagreement","Neither Agreement nor Disagreement","Slight Agreement","Moderate Agreement","Slight Agreement","Neither Agreement nor Disagreement","Slight Agreement","Moderate Agreement"
"121","A2FJMUOKON4OCQ:3U8YCDAGXQMZ23QMGXUXNCR0U2RQ08","2",8,1,3,"50","<p style=""font-size:100px""><b>d</b></p><p style=""position: absolute; top: 30px; right: 30px; text-align:right; font-size:50px"""">N = 3</p>","d",0,NA,NA,0,"agree",18,16,14,18,15,"40","male","The instructions are very clear.","Slight Disagreement","Slight Agreement","Slight Agreement","Neither Agreement nor Disagreement","Moderate Agreement","Strong Agreement","Neither Agreement nor Disagreement","Moderate Agreement","Slight Agreement","Moderate Agreement","Slight Disagreement","Neither Agreement nor Disagreement","Slight Agreement","Moderate Agreement","Slight Agreement","Neither Agreement nor Disagreement","Slight Agreement","Moderate Agreement"
"122","A2FJMUOKON4OCQ:3U8YCDAGXQMZ23QMGXUXNCR0U2RQ08","2",8,2,3,"50","<p style=""font-size:100px""><b>p</b></p><p style=""position: absolute; top: 30px; right: 30px; text-align:right; font-size:50px"""">N = 3</p>","p",0,73,798,1,"agree",18,16,14,18,15,"40","male","The instructions are very clear.","Slight Disagreement","Slight Agreement","Slight Agreement","Neither Agreement nor Disagreement","Moderate Agreement","Strong Agreement","Neither Agreement nor Disagreement","Moderate Agreement","Slight Agreement","Moderate Agreement","Slight Disagreement","Neither Agreement nor Disagreement","Slight Agreement","Moderate Agreement","Slight Agreement","Neither Agreement nor Disagreement","Slight Agreement","Moderate Agreement"
"123","A2FJMUOKON4OCQ:3U8YCDAGXQMZ23QMGXUXNCR0U2RQ08","2",8,3,3,"50","<p style=""font-size:100px""><b>B</b></p><p style=""position: absolute; top: 30px; right: 30px; text-align:right; font-size:50px"""">N = 3</p>","B",0,73,632,1,"agree",18,16,14,18,15,"40","male","The instructions are very clear.","Slight Disagreement","Slight Agreement","Slight Agreement","Neither Agreement nor Disagreement","Moderate Agreement","Strong Agreement","Neither Agreement nor Disagreement","Moderate Agreement","Slight Agreement","Moderate Agreement","Slight Disagreement","Neither Agreement nor Disagreement","Slight Agreement","Moderate Agreement","Slight Agreement","Neither Agreement nor Disagreement","Slight Agreement","Moderate Agreement"
"124","A2FJMUOKON4OCQ:3U8YCDAGXQMZ23QMGXUXNCR0U2RQ08","2",8,4,3,"50","<p style=""font-size:100px""><b>t</b></p><p style=""position: absolute; top: 30px; right: 30px; text-align:right; font-size:50px"""">N = 3</p>","t",0,73,690,1,"agree",18,16,14,18,15,"40","male","The instructions are very clear.","Slight Disagreement","Slight Agreement","Slight Agreement","Neither Agreement nor Disagreement","Moderate Agreement","Strong Agreement","Neither Agreement nor Disagreement","Moderate Agreement","Slight Agreement","Moderate Agreement","Slight Disagreement","Neither Agreement nor Disagreement","Slight Agreement","Moderate Agreement","Slight Agreement","Neither Agreement nor Disagreement","Slight Agreement","Moderate Agreement"
"125","A2FJMUOKON4OCQ:3U8YCDAGXQMZ23QMGXUXNCR0U2RQ08","2",8,5,3,"50","<p style=""font-size:100px""><b>p</b></p><p style=""position: absolute; top: 30px; right: 30px; text-align:right; font-size:50px"""">N = 3</p>","p",0,73,606,1,"agree",18,16,14,18,15,"40","male","The instructions are very clear.","Slight Disagreement","Slight Agreement","Slight Agreement","Neither Agreement nor Disagreement","Moderate Agreement","Strong Agreement","Neither Agreement nor Disagreement","Moderate Agreement","Slight Agreement","Moderate Agreement","Slight Disagreement","Neither Agreement nor Disagreement","Slight Agreement","Moderate Agreement","Slight Agreement","Neither Agreement nor Disagreement","Slight Agreement","Moderate Agreement"
"126","A2FJMUOKON4OCQ:3U8YCDAGXQMZ23QMGXUXNCR0U2RQ08","2",8,6,3,"50","<p style=""font-size:100px""><b>B</b></p><p style=""position: absolute; top: 30px; right: 30px; text-align:right; font-size:50px"""">N = 3</p>","B",0,73,603,1,"agree",18,16,14,18,15,"40","male","The instructions are very clear.","Slight Disagreement","Slight Agreement","Slight Agreement","Neither Agreement nor Disagreement","Moderate Agreement","Strong Agreement","Neither Agreement nor Disagreement","Moderate Agreement","Slight Agreement","Moderate Agreement","Slight Disagreement","Neither Agreement nor Disagreement","Slight Agreement","Moderate Agreement","Slight Agreement","Neither Agreement nor Disagreement","Slight Agreement","Moderate Agreement"
"127","A2FJMUOKON4OCQ:3U8YCDAGXQMZ23QMGXUXNCR0U2RQ08","2",8,7,3,"50","<p style=""font-size:100px""><b>t</b></p><p style=""position: absolute; top: 30px; right: 30px; text-align:right; font-size:50px"""">N = 3</p>","t",0,73,558,1,"agree",18,16,14,18,15,"40","male","The instructions are very clear.","Slight Disagreement","Slight Agreement","Slight Agreement","Neither Agreement nor Disagreement","Moderate Agreement","Strong Agreement","Neither Agreement nor Disagreement","Moderate Agreement","Slight Agreement","Moderate Agreement","Slight Disagreement","Neither Agreement nor Disagreement","Slight Agreement","Moderate Agreement","Slight Agreement","Neither Agreement nor Disagreement","Slight Agreement","Moderate Agreement"
"128","A2FJMUOKON4OCQ:3U8YCDAGXQMZ23QMGXUXNCR0U2RQ08","2",8,8,3,"50","<p style=""font-size:100px""><b>d</b></p><p style=""position: absolute; top: 30px; right: 30px; text-align:right; font-size:50px"""">N = 3</p>","d",0,73,414,1,"agree",18,16,14,18,15,"40","male","The instructions are very clear.","Slight Disagreement","Slight Agreement","Slight Agreement","Neither Agreement nor Disagreement","Moderate Agreement","Strong Agreement","Neither Agreement nor Disagreement","Moderate Agreement","Slight Agreement","Moderate Agreement","Slight Disagreement","Neither Agreement nor Disagreement","Slight Agreement","Moderate Agreement","Slight Agreement","Neither Agreement nor Disagreement","Slight Agreement","Moderate Agreement"
"129","A2FJMUOKON4OCQ:3U8YCDAGXQMZ23QMGXUXNCR0U2RQ08","2",8,9,3,"50","<p style=""font-size:100px""><b>p</b></p><p style=""position: absolute; top: 30px; right: 30px; text-align:right; font-size:50px"""">N = 3</p>","p",0,73,156,1,"agree",18,16,14,18,15,"40","male","The instructions are very clear.","Slight Disagreement","Slight Agreement","Slight Agreement","Neither Agreement nor Disagreement","Moderate Agreement","Strong Agreement","Neither Agreement nor Disagreement","Moderate Agreement","Slight Agreement","Moderate Agreement","Slight Disagreement","Neither Agreement nor Disagreement","Slight Agreement","Moderate Agreement","Slight Agreement","Neither Agreement nor Disagreement","Slight Agreement","Moderate Agreement"
"130","A2FJMUOKON4OCQ:3U8YCDAGXQMZ23QMGXUXNCR0U2RQ08","2",8,10,3,"50","<p style=""font-size:100px""><b>t</b></p><p style=""position: absolute; top: 30px; right: 30px; text-align:right; font-size:50px"""">N = 3</p>","t",0,73,197,1,"agree",18,16,14,18,15,"40","male","The instructions are very clear.","Slight Disagreement","Slight Agreement","Slight Agreement","Neither Agreement nor Disagreement","Moderate Agreement","Strong Agreement","Neither Agreement nor Disagreement","Moderate Agreement","Slight Agreement","Moderate Agreement","Slight Disagreement","Neither Agreement nor Disagreement","Slight Agreement","Moderate Agreement","Slight Agreement","Neither Agreement nor Disagreement","Slight Agreement","Moderate Agreement"
"131","A2FJMUOKON4OCQ:3U8YCDAGXQMZ23QMGXUXNCR0U2RQ08","2",8,11,3,"50","<p style=""font-size:100px""><b>t</b></p><p style=""position: absolute; top: 30px; right: 30px; text-align:right; font-size:50px"""">N = 3</p>","t",0,73,580,1,"agree",18,16,14,18,15,"40","male","The instructions are very clear.","Slight Disagreement","Slight Agreement","Slight Agreement","Neither Agreement nor Disagreement","Moderate Agreement","Strong Agreement","Neither Agreement nor Disagreement","Moderate Agreement","Slight Agreement","Moderate Agreement","Slight Disagreement","Neither Agreement nor Disagreement","Slight Agreement","Moderate Agreement","Slight Agreement","Neither Agreement nor Disagreement","Slight Agreement","Moderate Agreement"
"132","A2FJMUOKON4OCQ:3U8YCDAGXQMZ23QMGXUXNCR0U2RQ08","2",8,12,3,"50","<p style=""font-size:100px""><b>d</b></p><p style=""position: absolute; top: 30px; right: 30px; text-align:right; font-size:50px"""">N = 3</p>","d",0,73,528,1,"agree",18,16,14,18,15,"40","male","The instructions are very clear.","Slight Disagreement","Slight Agreement","Slight Agreement","Neither Agreement nor Disagreement","Moderate Agreement","Strong Agreement","Neither Agreement nor Disagreement","Moderate Agreement","Slight Agreement","Moderate Agreement","Slight Disagreement","Neither Agreement nor Disagreement","Slight Agreement","Moderate Agreement","Slight Agreement","Neither Agreement nor Disagreement","Slight Agreement","Moderate Agreement"
"133","A2FJMUOKON4OCQ:3U8YCDAGXQMZ23QMGXUXNCR0U2RQ08","2",9,1,1,"5","<p style=""font-size:100px""><b>p</b></p><p style=""position: absolute; top: 30px; right: 30px; text-align:right; font-size:50px"""">N = 1</p>","p",0,73,825,1,"agree",18,14,16,19,14,"40","male","The instructions are very clear.","Slight Disagreement","Slight Agreement","Slight Agreement","Neither Agreement nor Disagreement","Moderate Agreement","Strong Agreement","Neither Agreement nor Disagreement","Moderate Agreement","Slight Agreement","Moderate Agreement","Slight Disagreement","Neither Agreement nor Disagreement","Slight Agreement","Moderate Agreement","Slight Agreement","Neither Agreement nor Disagreement","Slight Agreement","Moderate Agreement"
"134","A2FJMUOKON4OCQ:3U8YCDAGXQMZ23QMGXUXNCR0U2RQ08","2",9,2,1,"5","<p style=""font-size:100px""><b>p</b></p><p style=""position: absolute; top: 30px; right: 30px; text-align:right; font-size:50px"""">N = 1</p>","p",0,73,552,1,"agree",18,14,16,19,14,"40","male","The instructions are very clear.","Slight Disagreement","Slight Agreement","Slight Agreement","Neither Agreement nor Disagreement","Moderate Agreement","Strong Agreement","Neither Agreement nor Disagreement","Moderate Agreement","Slight Agreement","Moderate Agreement","Slight Disagreement","Neither Agreement nor Disagreement","Slight Agreement","Moderate Agreement","Slight Agreement","Neither Agreement nor Disagreement","Slight Agreement","Moderate Agreement"
"135","A2FJMUOKON4OCQ:3U8YCDAGXQMZ23QMGXUXNCR0U2RQ08","2",9,3,1,"5","<p style=""font-size:100px""><b>T</b></p><p style=""position: absolute; top: 30px; right: 30px; text-align:right; font-size:50px"""">N = 1</p>","T",0,73,599,1,"agree",18,14,16,19,14,"40","male","The instructions are very clear.","Slight Disagreement","Slight Agreement","Slight Agreement","Neither Agreement nor Disagreement","Moderate Agreement","Strong Agreement","Neither Agreement nor Disagreement","Moderate Agreement","Slight Agreement","Moderate Agreement","Slight Disagreement","Neither Agreement nor Disagreement","Slight Agreement","Moderate Agreement","Slight Agreement","Neither Agreement nor Disagreement","Slight Agreement","Moderate Agreement"
"136","A2FJMUOKON4OCQ:3U8YCDAGXQMZ23QMGXUXNCR0U2RQ08","2",9,4,1,"5","<p style=""font-size:100px""><b>V</b></p><p style=""position: absolute; top: 30px; right: 30px; text-align:right; font-size:50px"""">N = 1</p>","V",0,73,583,1,"agree",18,14,16,19,14,"40","male","The instructions are very clear.","Slight Disagreement","Slight Agreement","Slight Agreement","Neither Agreement nor Disagreement","Moderate Agreement","Strong Agreement","Neither Agreement nor Disagreement","Moderate Agreement","Slight Agreement","Moderate Agreement","Slight Disagreement","Neither Agreement nor Disagreement","Slight Agreement","Moderate Agreement","Slight Agreement","Neither Agreement nor Disagreement","Slight Agreement","Moderate Agreement"
