"","subject","run","block","trial","N","reward","stimulus","cue","isTarget","key_press","rt","acc","debrief","performance","frustration","demand","temporal","effort","age","gender","comments","nfc1","nfc2","nfc3","nfc4","nfc5","nfc6","nfc7","nfc8","nfc9","nfc10","nfc11","nfc12","nfc13","nfc14","nfc15","nfc16","nfc17","nfc18"
"1","A2WYCY1FMQOD5F:31QNSG6A5SZ7EAQAF2Y6G0GN89U87W","practice",1,1,1,"NA","<p style=""font-size:100px""><b>B</b></p><p style=""position: absolute; top: 30px; right: 30px; text-align:right; font-size:50px"""">N = 1</p>","B",0,73,7529,1,"agree",16,16,17,14,15,"32","Male","they were clear to me","Slight Agreement","Neither Agreement nor Disagreement","Moderate Disagreement","Neither Agreement nor Disagreement","Slight Agreement","Moderate Agreement","Moderate Disagreement","Neither Agreement nor Disagreement","Slight Disagreement","Slight Agreement","Neither Agreement nor Disagreement","Slight Disagreement","Slight Agreement","Neither Agreement nor Disagreement","Slight Disagreement","Slight Disagreement","Moderate Disagreement","Moderate Disagreement"
"2","A2WYCY1FMQOD5F:31QNSG6A5SZ7EAQAF2Y6G0GN89U87W","practice",1,2,1,"NA","<p style=""font-size:100px""><b>B</b></p><p style=""position: absolute; top: 30px; right: 30px; text-align:right; font-size:50px"""">N = 1</p>","B",1,73,1055.90000009537,0,"agree",16,16,17,14,15,"32","Male","they were clear to me","Slight Agreement","Neither Agreement nor Disagreement","Moderate Disagreement","Neither Agreement nor Disagreement","Slight Agreement","Moderate Agreement","Moderate Disagreement","Neither Agreement nor Disagreement","Slight Disagreement","Slight Agreement","Neither Agreement nor Disagreement","Slight Disagreement","Slight Agreement","Neither Agreement nor Disagreement","Slight Disagreement","Slight Disagreement","Moderate Disagreement","Moderate Disagreement"
"3","A2WYCY1FMQOD5F:31QNSG6A5SZ7EAQAF2Y6G0GN89U87W","practice",1,3,1,"NA","<p style=""font-size:100px""><b>D</b></p><p style=""position: absolute; top: 30px; right: 30px; text-align:right; font-size:50px"""">N = 1</p>","D",0,73,1426,1,"agree",16,16,17,14,15,"32","Male","they were clear to me","Slight Agreement","Neither Agreement nor Disagreement","Moderate Disagreement","Neither Agreement nor Disagreement","Slight Agreement","Moderate Agreement","Moderate Disagreement","Neither Agreement nor Disagreement","Slight Disagreement","Slight Agreement","Neither Agreement nor Disagreement","Slight Disagreement","Slight Agreement","Neither Agreement nor Disagreement","Slight Disagreement","Slight Disagreement","Moderate Disagreement","Moderate Disagreement"
"4","A2WYCY1FMQOD5F:31QNSG6A5SZ7EAQAF2Y6G0GN89U87W","practice",1,4,1,"NA","<p style=""font-size:100px""><b>D</b></p><p style=""position: absolute; top: 30px; right: 30px; text-align:right; font-size:50px"""">N = 1</p>","D",1,69,4816.59999990463,1,"agree",16,16,17,14,15,"32","Male","they were clear to me","Slight Agreement","Neither Agreement nor Disagreement","Moderate Disagreement","Neither Agreement nor Disagreement","Slight Agreement","Moderate Agreement","Moderate Disagreement","Neither Agreement nor Disagreement","Slight Disagreement","Slight Agreement","Neither Agreement nor Disagreement","Slight Disagreement","Slight Agreement","Neither Agreement nor Disagreement","Slight Disagreement","Slight Disagreement","Moderate Disagreement","Moderate Disagreement"
"5","A2WYCY1FMQOD5F:31QNSG6A5SZ7EAQAF2Y6G0GN89U87W","practice",1,5,1,"NA","<p style=""font-size:100px""><b>D</b></p><p style=""position: absolute; top: 30px; right: 30px; text-align:right; font-size:50px"""">N = 1</p>","D",1,73,2232.80000019073,0,"agree",16,16,17,14,15,"32","Male","they were clear to me","Slight Agreement","Neither Agreement nor Disagreement","Moderate Disagreement","Neither Agreement nor Disagreement","Slight Agreement","Moderate Agreement","Moderate Disagreement","Neither Agreement nor Disagreement","Slight Disagreement","Slight Agreement","Neither Agreement nor Disagreement","Slight Disagreement","Slight Agreement","Neither Agreement nor Disagreement","Slight Disagreement","Slight Disagreement","Moderate Disagreement","Moderate Disagreement"
"6","A2WYCY1FMQOD5F:31QNSG6A5SZ7EAQAF2Y6G0GN89U87W","practice",1,6,1,"NA","<p style=""font-size:100px""><b>g</b></p><p style=""position: absolute; top: 30px; right: 30px; text-align:right; font-size:50px"""">N = 1</p>","g",0,73,1721.2000002861,1,"agree",16,16,17,14,15,"32","Male","they were clear to me","Slight Agreement","Neither Agreement nor Disagreement","Moderate Disagreement","Neither Agreement nor Disagreement","Slight Agreement","Moderate Agreement","Moderate Disagreement","Neither Agreement nor Disagreement","Slight Disagreement","Slight Agreement","Neither Agreement nor Disagreement","Slight Disagreement","Slight Agreement","Neither Agreement nor Disagreement","Slight Disagreement","Slight Disagreement","Moderate Disagreement","Moderate Disagreement"
"7","A2WYCY1FMQOD5F:31QNSG6A5SZ7EAQAF2Y6G0GN89U87W","practice",1,7,1,"NA","<p style=""font-size:100px""><b>P</b></p><p style=""position: absolute; top: 30px; right: 30px; text-align:right; font-size:50px"""">N = 1</p>","P",0,73,1041.2999997139,1,"agree",16,16,17,14,15,"32","Male","they were clear to me","Slight Agreement","Neither Agreement nor Disagreement","Moderate Disagreement","Neither Agreement nor Disagreement","Slight Agreement","Moderate Agreement","Moderate Disagreement","Neither Agreement nor Disagreement","Slight Disagreement","Slight Agreement","Neither Agreement nor Disagreement","Slight Disagreement","Slight Agreement","Neither Agreement nor Disagreement","Slight Disagreement","Slight Disagreement","Moderate Disagreement","Moderate Disagreement"
"8","A2WYCY1FMQOD5F:31QNSG6A5SZ7EAQAF2Y6G0GN89U87W","practice",1,8,1,"NA","<p style=""font-size:100px""><b>t</b></p><p style=""position: absolute; top: 30px; right: 30px; text-align:right; font-size:50px"""">N = 1</p>","t",0,73,825.199999809265,1,"agree",16,16,17,14,15,"32","Male","they were clear to me","Slight Agreement","Neither Agreement nor Disagreement","Moderate Disagreement","Neither Agreement nor Disagreement","Slight Agreement","Moderate Agreement","Moderate Disagreement","Neither Agreement nor Disagreement","Slight Disagreement","Slight Agreement","Neither Agreement nor Disagreement","Slight Disagreement","Slight Agreement","Neither Agreement nor Disagreement","Slight Disagreement","Slight Disagreement","Moderate Disagreement","Moderate Disagreement"
"9","A2WYCY1FMQOD5F:31QNSG6A5SZ7EAQAF2Y6G0GN89U87W","practice",1,9,1,"NA","<p style=""font-size:100px""><b>V</b></p><p style=""position: absolute; top: 30px; right: 30px; text-align:right; font-size:50px"""">N = 1</p>","V",0,73,545.400000095367,1,"agree",16,16,17,14,15,"32","Male","they were clear to me","Slight Agreement","Neither Agreement nor Disagreement","Moderate Disagreement","Neither Agreement nor Disagreement","Slight Agreement","Moderate Agreement","Moderate Disagreement","Neither Agreement nor Disagreement","Slight Disagreement","Slight Agreement","Neither Agreement nor Disagreement","Slight Disagreement","Slight Agreement","Neither Agreement nor Disagreement","Slight Disagreement","Slight Disagreement","Moderate Disagreement","Moderate Disagreement"
"10","A2WYCY1FMQOD5F:31QNSG6A5SZ7EAQAF2Y6G0GN89U87W","practice",1,10,1,"NA","<p style=""font-size:100px""><b>V</b></p><p style=""position: absolute; top: 30px; right: 30px; text-align:right; font-size:50px"""">N = 1</p>","V",1,73,1522.40000009537,0,"agree",16,16,17,14,15,"32","Male","they were clear to me","Slight Agreement","Neither Agreement nor Disagreement","Moderate Disagreement","Neither Agreement nor Disagreement","Slight Agreement","Moderate Agreement","Moderate Disagreement","Neither Agreement nor Disagreement","Slight Disagreement","Slight Agreement","Neither Agreement nor Disagreement","Slight Disagreement","Slight Agreement","Neither Agreement nor Disagreement","Slight Disagreement","Slight Disagreement","Moderate Disagreement","Moderate Disagreement"
"11","A2WYCY1FMQOD5F:31QNSG6A5SZ7EAQAF2Y6G0GN89U87W","practice",1,11,1,"NA","<p style=""font-size:100px""><b>B</b></p><p style=""position: absolute; top: 30px; right: 30px; text-align:right; font-size:50px"""">N = 1</p>","B",0,73,760.700000286102,1,"agree",16,16,17,14,15,"32","Male","they were clear to me","Slight Agreement","Neither Agreement nor Disagreement","Moderate Disagreement","Neither Agreement nor Disagreement","Slight Agreement","Moderate Agreement","Moderate Disagreement","Neither Agreement nor Disagreement","Slight Disagreement","Slight Agreement","Neither Agreement nor Disagreement","Slight Disagreement","Slight Agreement","Neither Agreement nor Disagreement","Slight Disagreement","Slight Disagreement","Moderate Disagreement","Moderate Disagreement"
"12","A2WYCY1FMQOD5F:31QNSG6A5SZ7EAQAF2Y6G0GN89U87W","practice",1,12,1,"NA","<p style=""font-size:100px""><b>V</b></p><p style=""position: absolute; top: 30px; right: 30px; text-align:right; font-size:50px"""">N = 1</p>","V",0,73,785.799999713898,1,"agree",16,16,17,14,15,"32","Male","they were clear to me","Slight Agreement","Neither Agreement nor Disagreement","Moderate Disagreement","Neither Agreement nor Disagreement","Slight Agreement","Moderate Agreement","Moderate Disagreement","Neither Agreement nor Disagreement","Slight Disagreement","Slight Agreement","Neither Agreement nor Disagreement","Slight Disagreement","Slight Agreement","Neither Agreement nor Disagreement","Slight Disagreement","Slight Disagreement","Moderate Disagreement","Moderate Disagreement"
"13","A2WYCY1FMQOD5F:31QNSG6A5SZ7EAQAF2Y6G0GN89U87W","practice",2,1,2,"NA","<p style=""font-size:100px""><b>B</b></p><p style=""position: absolute; top: 30px; right: 30px; text-align:right; font-size:50px"""">N = 2</p>","B",0,73,2323.30000019073,1,"agree",16,16,17,14,15,"32","Male","they were clear to me","Slight Agreement","Neither Agreement nor Disagreement","Moderate Disagreement","Neither Agreement nor Disagreement","Slight Agreement","Moderate Agreement","Moderate Disagreement","Neither Agreement nor Disagreement","Slight Disagreement","Slight Agreement","Neither Agreement nor Disagreement","Slight Disagreement","Slight Agreement","Neither Agreement nor Disagreement","Slight Disagreement","Slight Disagreement","Moderate Disagreement","Moderate Disagreement"
"14","A2WYCY1FMQOD5F:31QNSG6A5SZ7EAQAF2Y6G0GN89U87W","practice",2,2,2,"NA","<p style=""font-size:100px""><b>T</b></p><p style=""position: absolute; top: 30px; right: 30px; text-align:right; font-size:50px"""">N = 2</p>","T",0,73,1241.5,1,"agree",16,16,17,14,15,"32","Male","they were clear to me","Slight Agreement","Neither Agreement nor Disagreement","Moderate Disagreement","Neither Agreement nor Disagreement","Slight Agreement","Moderate Agreement","Moderate Disagreement","Neither Agreement nor Disagreement","Slight Disagreement","Slight Agreement","Neither Agreement nor Disagreement","Slight Disagreement","Slight Agreement","Neither Agreement nor Disagreement","Slight Disagreement","Slight Disagreement","Moderate Disagreement","Moderate Disagreement"
"15","A2WYCY1FMQOD5F:31QNSG6A5SZ7EAQAF2Y6G0GN89U87W","practice",2,3,2,"NA","<p style=""font-size:100px""><b>V</b></p><p style=""position: absolute; top: 30px; right: 30px; text-align:right; font-size:50px"""">N = 2</p>","V",0,73,1096.40000009537,1,"agree",16,16,17,14,15,"32","Male","they were clear to me","Slight Agreement","Neither Agreement nor Disagreement","Moderate Disagreement","Neither Agreement nor Disagreement","Slight Agreement","Moderate Agreement","Moderate Disagreement","Neither Agreement nor Disagreement","Slight Disagreement","Slight Agreement","Neither Agreement nor Disagreement","Slight Disagreement","Slight Agreement","Neither Agreement nor Disagreement","Slight Disagreement","Slight Disagreement","Moderate Disagreement","Moderate Disagreement"
"16","A2WYCY1FMQOD5F:31QNSG6A5SZ7EAQAF2Y6G0GN89U87W","practice",2,4,2,"NA","<p style=""font-size:100px""><b>G</b></p><p style=""position: absolute; top: 30px; right: 30px; text-align:right; font-size:50px"""">N = 2</p>","G",0,73,601.599999904633,1,"agree",16,16,17,14,15,"32","Male","they were clear to me","Slight Agreement","Neither Agreement nor Disagreement","Moderate Disagreement","Neither Agreement nor Disagreement","Slight Agreement","Moderate Agreement","Moderate Disagreement","Neither Agreement nor Disagreement","Slight Disagreement","Slight Agreement","Neither Agreement nor Disagreement","Slight Disagreement","Slight Agreement","Neither Agreement nor Disagreement","Slight Disagreement","Slight Disagreement","Moderate Disagreement","Moderate Disagreement"
"17","A2WYCY1FMQOD5F:31QNSG6A5SZ7EAQAF2Y6G0GN89U87W","practice",2,5,2,"NA","<p style=""font-size:100px""><b>b</b></p><p style=""position: absolute; top: 30px; right: 30px; text-align:right; font-size:50px"""">N = 2</p>","b",0,73,898.199999809265,1,"agree",16,16,17,14,15,"32","Male","they were clear to me","Slight Agreement","Neither Agreement nor Disagreement","Moderate Disagreement","Neither Agreement nor Disagreement","Slight Agreement","Moderate Agreement","Moderate Disagreement","Neither Agreement nor Disagreement","Slight Disagreement","Slight Agreement","Neither Agreement nor Disagreement","Slight Disagreement","Slight Agreement","Neither Agreement nor Disagreement","Slight Disagreement","Slight Disagreement","Moderate Disagreement","Moderate Disagreement"
"18","A2WYCY1FMQOD5F:31QNSG6A5SZ7EAQAF2Y6G0GN89U87W","practice",2,6,2,"NA","<p style=""font-size:100px""><b>G</b></p><p style=""position: absolute; top: 30px; right: 30px; text-align:right; font-size:50px"""">N = 2</p>","G",1,73,712.200000286102,0,"agree",16,16,17,14,15,"32","Male","they were clear to me","Slight Agreement","Neither Agreement nor Disagreement","Moderate Disagreement","Neither Agreement nor Disagreement","Slight Agreement","Moderate Agreement","Moderate Disagreement","Neither Agreement nor Disagreement","Slight Disagreement","Slight Agreement","Neither Agreement nor Disagreement","Slight Disagreement","Slight Agreement","Neither Agreement nor Disagreement","Slight Disagreement","Slight Disagreement","Moderate Disagreement","Moderate Disagreement"
"19","A2WYCY1FMQOD5F:31QNSG6A5SZ7EAQAF2Y6G0GN89U87W","practice",2,7,2,"NA","<p style=""font-size:100px""><b>b</b></p><p style=""position: absolute; top: 30px; right: 30px; text-align:right; font-size:50px"""">N = 2</p>","b",1,73,1215.59999990463,0,"agree",16,16,17,14,15,"32","Male","they were clear to me","Slight Agreement","Neither Agreement nor Disagreement","Moderate Disagreement","Neither Agreement nor Disagreement","Slight Agreement","Moderate Agreement","Moderate Disagreement","Neither Agreement nor Disagreement","Slight Disagreement","Slight Agreement","Neither Agreement nor Disagreement","Slight Disagreement","Slight Agreement","Neither Agreement nor Disagreement","Slight Disagreement","Slight Disagreement","Moderate Disagreement","Moderate Disagreement"
"20","A2WYCY1FMQOD5F:31QNSG6A5SZ7EAQAF2Y6G0GN89U87W","practice",2,8,2,"NA","<p style=""font-size:100px""><b>G</b></p><p style=""position: absolute; top: 30px; right: 30px; text-align:right; font-size:50px"""">N = 2</p>","G",1,69,849.599999904633,1,"agree",16,16,17,14,15,"32","Male","they were clear to me","Slight Agreement","Neither Agreement nor Disagreement","Moderate Disagreement","Neither Agreement nor Disagreement","Slight Agreement","Moderate Agreement","Moderate Disagreement","Neither Agreement nor Disagreement","Slight Disagreement","Slight Agreement","Neither Agreement nor Disagreement","Slight Disagreement","Slight Agreement","Neither Agreement nor Disagreement","Slight Disagreement","Slight Disagreement","Moderate Disagreement","Moderate Disagreement"
"21","A2WYCY1FMQOD5F:31QNSG6A5SZ7EAQAF2Y6G0GN89U87W","practice",2,9,2,"NA","<p style=""font-size:100px""><b>G</b></p><p style=""position: absolute; top: 30px; right: 30px; text-align:right; font-size:50px"""">N = 2</p>","G",0,73,1329.7000002861,1,"agree",16,16,17,14,15,"32","Male","they were clear to me","Slight Agreement","Neither Agreement nor Disagreement","Moderate Disagreement","Neither Agreement nor Disagreement","Slight Agreement","Moderate Agreement","Moderate Disagreement","Neither Agreement nor Disagreement","Slight Disagreement","Slight Agreement","Neither Agreement nor Disagreement","Slight Disagreement","Slight Agreement","Neither Agreement nor Disagreement","Slight Disagreement","Slight Disagreement","Moderate Disagreement","Moderate Disagreement"
"22","A2WYCY1FMQOD5F:31QNSG6A5SZ7EAQAF2Y6G0GN89U87W","practice",2,10,2,"NA","<p style=""font-size:100px""><b>G</b></p><p style=""position: absolute; top: 30px; right: 30px; text-align:right; font-size:50px"""">N = 2</p>","G",1,69,1048.5,1,"agree",16,16,17,14,15,"32","Male","they were clear to me","Slight Agreement","Neither Agreement nor Disagreement","Moderate Disagreement","Neither Agreement nor Disagreement","Slight Agreement","Moderate Agreement","Moderate Disagreement","Neither Agreement nor Disagreement","Slight Disagreement","Slight Agreement","Neither Agreement nor Disagreement","Slight Disagreement","Slight Agreement","Neither Agreement nor Disagreement","Slight Disagreement","Slight Disagreement","Moderate Disagreement","Moderate Disagreement"
"23","A2WYCY1FMQOD5F:31QNSG6A5SZ7EAQAF2Y6G0GN89U87W","practice",2,11,2,"NA","<p style=""font-size:100px""><b>b</b></p><p style=""position: absolute; top: 30px; right: 30px; text-align:right; font-size:50px"""">N = 2</p>","b",0,73,1160.5,1,"agree",16,16,17,14,15,"32","Male","they were clear to me","Slight Agreement","Neither Agreement nor Disagreement","Moderate Disagreement","Neither Agreement nor Disagreement","Slight Agreement","Moderate Agreement","Moderate Disagreement","Neither Agreement nor Disagreement","Slight Disagreement","Slight Agreement","Neither Agreement nor Disagreement","Slight Disagreement","Slight Agreement","Neither Agreement nor Disagreement","Slight Disagreement","Slight Disagreement","Moderate Disagreement","Moderate Disagreement"
"24","A2WYCY1FMQOD5F:31QNSG6A5SZ7EAQAF2Y6G0GN89U87W","practice",2,12,2,"NA","<p style=""font-size:100px""><b>V</b></p><p style=""position: absolute; top: 30px; right: 30px; text-align:right; font-size:50px"""">N = 2</p>","V",0,73,1263,1,"agree",16,16,17,14,15,"32","Male","they were clear to me","Slight Agreement","Neither Agreement nor Disagreement","Moderate Disagreement","Neither Agreement nor Disagreement","Slight Agreement","Moderate Agreement","Moderate Disagreement","Neither Agreement nor Disagreement","Slight Disagreement","Slight Agreement","Neither Agreement nor Disagreement","Slight Disagreement","Slight Agreement","Neither Agreement nor Disagreement","Slight Disagreement","Slight Disagreement","Moderate Disagreement","Moderate Disagreement"
"25","A2WYCY1FMQOD5F:31QNSG6A5SZ7EAQAF2Y6G0GN89U87W","practice",3,1,3,"NA","<p style=""font-size:100px""><b>G</b></p><p style=""position: absolute; top: 30px; right: 30px; text-align:right; font-size:50px"""">N = 3</p>","G",0,73,1315.69999980927,1,"agree",16,16,17,14,15,"32","Male","they were clear to me","Slight Agreement","Neither Agreement nor Disagreement","Moderate Disagreement","Neither Agreement nor Disagreement","Slight Agreement","Moderate Agreement","Moderate Disagreement","Neither Agreement nor Disagreement","Slight Disagreement","Slight Agreement","Neither Agreement nor Disagreement","Slight Disagreement","Slight Agreement","Neither Agreement nor Disagreement","Slight Disagreement","Slight Disagreement","Moderate Disagreement","Moderate Disagreement"
"26","A2WYCY1FMQOD5F:31QNSG6A5SZ7EAQAF2Y6G0GN89U87W","practice",3,2,3,"NA","<p style=""font-size:100px""><b>t</b></p><p style=""position: absolute; top: 30px; right: 30px; text-align:right; font-size:50px"""">N = 3</p>","t",0,73,889.099999904633,1,"agree",16,16,17,14,15,"32","Male","they were clear to me","Slight Agreement","Neither Agreement nor Disagreement","Moderate Disagreement","Neither Agreement nor Disagreement","Slight Agreement","Moderate Agreement","Moderate Disagreement","Neither Agreement nor Disagreement","Slight Disagreement","Slight Agreement","Neither Agreement nor Disagreement","Slight Disagreement","Slight Agreement","Neither Agreement nor Disagreement","Slight Disagreement","Slight Disagreement","Moderate Disagreement","Moderate Disagreement"
"27","A2WYCY1FMQOD5F:31QNSG6A5SZ7EAQAF2Y6G0GN89U87W","practice",3,3,3,"NA","<p style=""font-size:100px""><b>V</b></p><p style=""position: absolute; top: 30px; right: 30px; text-align:right; font-size:50px"""">N = 3</p>","V",0,73,833.900000095367,1,"agree",16,16,17,14,15,"32","Male","they were clear to me","Slight Agreement","Neither Agreement nor Disagreement","Moderate Disagreement","Neither Agreement nor Disagreement","Slight Agreement","Moderate Agreement","Moderate Disagreement","Neither Agreement nor Disagreement","Slight Disagreement","Slight Agreement","Neither Agreement nor Disagreement","Slight Disagreement","Slight Agreement","Neither Agreement nor Disagreement","Slight Disagreement","Slight Disagreement","Moderate Disagreement","Moderate Disagreement"
"28","A2WYCY1FMQOD5F:31QNSG6A5SZ7EAQAF2Y6G0GN89U87W","practice",3,4,3,"NA","<p style=""font-size:100px""><b>P</b></p><p style=""position: absolute; top: 30px; right: 30px; text-align:right; font-size:50px"""">N = 3</p>","P",0,73,665.300000190735,1,"agree",16,16,17,14,15,"32","Male","they were clear to me","Slight Agreement","Neither Agreement nor Disagreement","Moderate Disagreement","Neither Agreement nor Disagreement","Slight Agreement","Moderate Agreement","Moderate Disagreement","Neither Agreement nor Disagreement","Slight Disagreement","Slight Agreement","Neither Agreement nor Disagreement","Slight Disagreement","Slight Agreement","Neither Agreement nor Disagreement","Slight Disagreement","Slight Disagreement","Moderate Disagreement","Moderate Disagreement"
"29","A2WYCY1FMQOD5F:31QNSG6A5SZ7EAQAF2Y6G0GN89U87W","practice",3,5,3,"NA","<p style=""font-size:100px""><b>v</b></p><p style=""position: absolute; top: 30px; right: 30px; text-align:right; font-size:50px"""">N = 3</p>","v",0,69,921.099999904633,0,"agree",16,16,17,14,15,"32","Male","they were clear to me","Slight Agreement","Neither Agreement nor Disagreement","Moderate Disagreement","Neither Agreement nor Disagreement","Slight Agreement","Moderate Agreement","Moderate Disagreement","Neither Agreement nor Disagreement","Slight Disagreement","Slight Agreement","Neither Agreement nor Disagreement","Slight Disagreement","Slight Agreement","Neither Agreement nor Disagreement","Slight Disagreement","Slight Disagreement","Moderate Disagreement","Moderate Disagreement"
"30","A2WYCY1FMQOD5F:31QNSG6A5SZ7EAQAF2Y6G0GN89U87W","practice",3,6,3,"NA","<p style=""font-size:100px""><b>V</b></p><p style=""position: absolute; top: 30px; right: 30px; text-align:right; font-size:50px"""">N = 3</p>","V",1,69,561.599999904633,1,"agree",16,16,17,14,15,"32","Male","they were clear to me","Slight Agreement","Neither Agreement nor Disagreement","Moderate Disagreement","Neither Agreement nor Disagreement","Slight Agreement","Moderate Agreement","Moderate Disagreement","Neither Agreement nor Disagreement","Slight Disagreement","Slight Agreement","Neither Agreement nor Disagreement","Slight Disagreement","Slight Agreement","Neither Agreement nor Disagreement","Slight Disagreement","Slight Disagreement","Moderate Disagreement","Moderate Disagreement"
"31","A2WYCY1FMQOD5F:31QNSG6A5SZ7EAQAF2Y6G0GN89U87W","practice",3,7,3,"NA","<p style=""font-size:100px""><b>G</b></p><p style=""position: absolute; top: 30px; right: 30px; text-align:right; font-size:50px"""">N = 3</p>","G",0,73,1241.80000019073,1,"agree",16,16,17,14,15,"32","Male","they were clear to me","Slight Agreement","Neither Agreement nor Disagreement","Moderate Disagreement","Neither Agreement nor Disagreement","Slight Agreement","Moderate Agreement","Moderate Disagreement","Neither Agreement nor Disagreement","Slight Disagreement","Slight Agreement","Neither Agreement nor Disagreement","Slight Disagreement","Slight Agreement","Neither Agreement nor Disagreement","Slight Disagreement","Slight Disagreement","Moderate Disagreement","Moderate Disagreement"
"32","A2WYCY1FMQOD5F:31QNSG6A5SZ7EAQAF2Y6G0GN89U87W","practice",3,8,3,"NA","<p style=""font-size:100px""><b>v</b></p><p style=""position: absolute; top: 30px; right: 30px; text-align:right; font-size:50px"""">N = 3</p>","v",1,69,1474.7000002861,1,"agree",16,16,17,14,15,"32","Male","they were clear to me","Slight Agreement","Neither Agreement nor Disagreement","Moderate Disagreement","Neither Agreement nor Disagreement","Slight Agreement","Moderate Agreement","Moderate Disagreement","Neither Agreement nor Disagreement","Slight Disagreement","Slight Agreement","Neither Agreement nor Disagreement","Slight Disagreement","Slight Agreement","Neither Agreement nor Disagreement","Slight Disagreement","Slight Disagreement","Moderate Disagreement","Moderate Disagreement"
"33","A2WYCY1FMQOD5F:31QNSG6A5SZ7EAQAF2Y6G0GN89U87W","practice",3,9,3,"NA","<p style=""font-size:100px""><b>V</b></p><p style=""position: absolute; top: 30px; right: 30px; text-align:right; font-size:50px"""">N = 3</p>","V",1,73,1121.59999990463,0,"agree",16,16,17,14,15,"32","Male","they were clear to me","Slight Agreement","Neither Agreement nor Disagreement","Moderate Disagreement","Neither Agreement nor Disagreement","Slight Agreement","Moderate Agreement","Moderate Disagreement","Neither Agreement nor Disagreement","Slight Disagreement","Slight Agreement","Neither Agreement nor Disagreement","Slight Disagreement","Slight Agreement","Neither Agreement nor Disagreement","Slight Disagreement","Slight Disagreement","Moderate Disagreement","Moderate Disagreement"
"34","A2WYCY1FMQOD5F:31QNSG6A5SZ7EAQAF2Y6G0GN89U87W","practice",3,10,3,"NA","<p style=""font-size:100px""><b>T</b></p><p style=""position: absolute; top: 30px; right: 30px; text-align:right; font-size:50px"""">N = 3</p>","T",0,73,1210.59999990463,1,"agree",16,16,17,14,15,"32","Male","they were clear to me","Slight Agreement","Neither Agreement nor Disagreement","Moderate Disagreement","Neither Agreement nor Disagreement","Slight Agreement","Moderate Agreement","Moderate Disagreement","Neither Agreement nor Disagreement","Slight Disagreement","Slight Agreement","Neither Agreement nor Disagreement","Slight Disagreement","Slight Agreement","Neither Agreement nor Disagreement","Slight Disagreement","Slight Disagreement","Moderate Disagreement","Moderate Disagreement"
"35","A2WYCY1FMQOD5F:31QNSG6A5SZ7EAQAF2Y6G0GN89U87W","practice",3,11,3,"NA","<p style=""font-size:100px""><b>v</b></p><p style=""position: absolute; top: 30px; right: 30px; text-align:right; font-size:50px"""">N = 3</p>","v",1,69,784.700000286102,1,"agree",16,16,17,14,15,"32","Male","they were clear to me","Slight Agreement","Neither Agreement nor Disagreement","Moderate Disagreement","Neither Agreement nor Disagreement","Slight Agreement","Moderate Agreement","Moderate Disagreement","Neither Agreement nor Disagreement","Slight Disagreement","Slight Agreement","Neither Agreement nor Disagreement","Slight Disagreement","Slight Agreement","Neither Agreement nor Disagreement","Slight Disagreement","Slight Disagreement","Moderate Disagreement","Moderate Disagreement"
"36","A2WYCY1FMQOD5F:31QNSG6A5SZ7EAQAF2Y6G0GN89U87W","practice",3,12,3,"NA","<p style=""font-size:100px""><b>d</b></p><p style=""position: absolute; top: 30px; right: 30px; text-align:right; font-size:50px"""">N = 3</p>","d",0,73,1305.5,1,"agree",16,16,17,14,15,"32","Male","they were clear to me","Slight Agreement","Neither Agreement nor Disagreement","Moderate Disagreement","Neither Agreement nor Disagreement","Slight Agreement","Moderate Agreement","Moderate Disagreement","Neither Agreement nor Disagreement","Slight Disagreement","Slight Agreement","Neither Agreement nor Disagreement","Slight Disagreement","Slight Agreement","Neither Agreement nor Disagreement","Slight Disagreement","Slight Disagreement","Moderate Disagreement","Moderate Disagreement"
"37","A2WYCY1FMQOD5F:31QNSG6A5SZ7EAQAF2Y6G0GN89U87W","1",1,1,3,"50","<p style=""font-size:100px""><b>v</b></p><p style=""position: absolute; top: 30px; right: 30px; text-align:right; font-size:50px"""">N = 3</p>","v",0,73,813.200000286102,1,"agree",16,16,17,14,15,"32","Male","they were clear to me","Slight Agreement","Neither Agreement nor Disagreement","Moderate Disagreement","Neither Agreement nor Disagreement","Slight Agreement","Moderate Agreement","Moderate Disagreement","Neither Agreement nor Disagreement","Slight Disagreement","Slight Agreement","Neither Agreement nor Disagreement","Slight Disagreement","Slight Agreement","Neither Agreement nor Disagreement","Slight Disagreement","Slight Disagreement","Moderate Disagreement","Moderate Disagreement"
"38","A2WYCY1FMQOD5F:31QNSG6A5SZ7EAQAF2Y6G0GN89U87W","1",1,2,3,"50","<p style=""font-size:100px""><b>t</b></p><p style=""position: absolute; top: 30px; right: 30px; text-align:right; font-size:50px"""">N = 3</p>","t",0,NA,NA,0,"agree",16,16,17,14,15,"32","Male","they were clear to me","Slight Agreement","Neither Agreement nor Disagreement","Moderate Disagreement","Neither Agreement nor Disagreement","Slight Agreement","Moderate Agreement","Moderate Disagreement","Neither Agreement nor Disagreement","Slight Disagreement","Slight Agreement","Neither Agreement nor Disagreement","Slight Disagreement","Slight Agreement","Neither Agreement nor Disagreement","Slight Disagreement","Slight Disagreement","Moderate Disagreement","Moderate Disagreement"
"39","A2WYCY1FMQOD5F:31QNSG6A5SZ7EAQAF2Y6G0GN89U87W","1",1,3,3,"50","<p style=""font-size:100px""><b>D</b></p><p style=""position: absolute; top: 30px; right: 30px; text-align:right; font-size:50px"""">N = 3</p>","D",0,73,887.599999904633,1,"agree",16,16,17,14,15,"32","Male","they were clear to me","Slight Agreement","Neither Agreement nor Disagreement","Moderate Disagreement","Neither Agreement nor Disagreement","Slight Agreement","Moderate Agreement","Moderate Disagreement","Neither Agreement nor Disagreement","Slight Disagreement","Slight Agreement","Neither Agreement nor Disagreement","Slight Disagreement","Slight Agreement","Neither Agreement nor Disagreement","Slight Disagreement","Slight Disagreement","Moderate Disagreement","Moderate Disagreement"
"40","A2WYCY1FMQOD5F:31QNSG6A5SZ7EAQAF2Y6G0GN89U87W","1",1,4,3,"50","<p style=""font-size:100px""><b>G</b></p><p style=""position: absolute; top: 30px; right: 30px; text-align:right; font-size:50px"""">N = 3</p>","G",0,73,783.300000190735,1,"agree",16,16,17,14,15,"32","Male","they were clear to me","Slight Agreement","Neither Agreement nor Disagreement","Moderate Disagreement","Neither Agreement nor Disagreement","Slight Agreement","Moderate Agreement","Moderate Disagreement","Neither Agreement nor Disagreement","Slight Disagreement","Slight Agreement","Neither Agreement nor Disagreement","Slight Disagreement","Slight Agreement","Neither Agreement nor Disagreement","Slight Disagreement","Slight Disagreement","Moderate Disagreement","Moderate Disagreement"
"41","A2WYCY1FMQOD5F:31QNSG6A5SZ7EAQAF2Y6G0GN89U87W","1",1,5,3,"50","<p style=""font-size:100px""><b>p</b></p><p style=""position: absolute; top: 30px; right: 30px; text-align:right; font-size:50px"""">N = 3</p>","p",0,69,536.900000095367,0,"agree",16,16,17,14,15,"32","Male","they were clear to me","Slight Agreement","Neither Agreement nor Disagreement","Moderate Disagreement","Neither Agreement nor Disagreement","Slight Agreement","Moderate Agreement","Moderate Disagreement","Neither Agreement nor Disagreement","Slight Disagreement","Slight Agreement","Neither Agreement nor Disagreement","Slight Disagreement","Slight Agreement","Neither Agreement nor Disagreement","Slight Disagreement","Slight Disagreement","Moderate Disagreement","Moderate Disagreement"
"42","A2WYCY1FMQOD5F:31QNSG6A5SZ7EAQAF2Y6G0GN89U87W","1",1,6,3,"50","<p style=""font-size:100px""><b>V</b></p><p style=""position: absolute; top: 30px; right: 30px; text-align:right; font-size:50px"""">N = 3</p>","V",0,69,626.5,0,"agree",16,16,17,14,15,"32","Male","they were clear to me","Slight Agreement","Neither Agreement nor Disagreement","Moderate Disagreement","Neither Agreement nor Disagreement","Slight Agreement","Moderate Agreement","Moderate Disagreement","Neither Agreement nor Disagreement","Slight Disagreement","Slight Agreement","Neither Agreement nor Disagreement","Slight Disagreement","Slight Agreement","Neither Agreement nor Disagreement","Slight Disagreement","Slight Disagreement","Moderate Disagreement","Moderate Disagreement"
"43","A2WYCY1FMQOD5F:31QNSG6A5SZ7EAQAF2Y6G0GN89U87W","1",1,7,3,"50","<p style=""font-size:100px""><b>G</b></p><p style=""position: absolute; top: 30px; right: 30px; text-align:right; font-size:50px"""">N = 3</p>","G",0,73,548.200000286102,1,"agree",16,16,17,14,15,"32","Male","they were clear to me","Slight Agreement","Neither Agreement nor Disagreement","Moderate Disagreement","Neither Agreement nor Disagreement","Slight Agreement","Moderate Agreement","Moderate Disagreement","Neither Agreement nor Disagreement","Slight Disagreement","Slight Agreement","Neither Agreement nor Disagreement","Slight Disagreement","Slight Agreement","Neither Agreement nor Disagreement","Slight Disagreement","Slight Disagreement","Moderate Disagreement","Moderate Disagreement"
"44","A2WYCY1FMQOD5F:31QNSG6A5SZ7EAQAF2Y6G0GN89U87W","1",1,8,3,"50","<p style=""font-size:100px""><b>p</b></p><p style=""position: absolute; top: 30px; right: 30px; text-align:right; font-size:50px"""">N = 3</p>","p",0,69,726.700000286102,0,"agree",16,16,17,14,15,"32","Male","they were clear to me","Slight Agreement","Neither Agreement nor Disagreement","Moderate Disagreement","Neither Agreement nor Disagreement","Slight Agreement","Moderate Agreement","Moderate Disagreement","Neither Agreement nor Disagreement","Slight Disagreement","Slight Agreement","Neither Agreement nor Disagreement","Slight Disagreement","Slight Agreement","Neither Agreement nor Disagreement","Slight Disagreement","Slight Disagreement","Moderate Disagreement","Moderate Disagreement"
"45","A2WYCY1FMQOD5F:31QNSG6A5SZ7EAQAF2Y6G0GN89U87W","1",1,9,3,"50","<p style=""font-size:100px""><b>T</b></p><p style=""position: absolute; top: 30px; right: 30px; text-align:right; font-size:50px"""">N = 3</p>","T",0,73,605.900000095367,1,"agree",16,16,17,14,15,"32","Male","they were clear to me","Slight Agreement","Neither Agreement nor Disagreement","Moderate Disagreement","Neither Agreement nor Disagreement","Slight Agreement","Moderate Agreement","Moderate Disagreement","Neither Agreement nor Disagreement","Slight Disagreement","Slight Agreement","Neither Agreement nor Disagreement","Slight Disagreement","Slight Agreement","Neither Agreement nor Disagreement","Slight Disagreement","Slight Disagreement","Moderate Disagreement","Moderate Disagreement"
"46","A2WYCY1FMQOD5F:31QNSG6A5SZ7EAQAF2Y6G0GN89U87W","1",1,10,3,"50","<p style=""font-size:100px""><b>P</b></p><p style=""position: absolute; top: 30px; right: 30px; text-align:right; font-size:50px"""">N = 3</p>","P",0,69,880.599999904633,0,"agree",16,16,17,14,15,"32","Male","they were clear to me","Slight Agreement","Neither Agreement nor Disagreement","Moderate Disagreement","Neither Agreement nor Disagreement","Slight Agreement","Moderate Agreement","Moderate Disagreement","Neither Agreement nor Disagreement","Slight Disagreement","Slight Agreement","Neither Agreement nor Disagreement","Slight Disagreement","Slight Agreement","Neither Agreement nor Disagreement","Slight Disagreement","Slight Disagreement","Moderate Disagreement","Moderate Disagreement"
"47","A2WYCY1FMQOD5F:31QNSG6A5SZ7EAQAF2Y6G0GN89U87W","1",1,11,3,"50","<p style=""font-size:100px""><b>p</b></p><p style=""position: absolute; top: 30px; right: 30px; text-align:right; font-size:50px"""">N = 3</p>","p",0,73,586.10000038147,1,"agree",16,16,17,14,15,"32","Male","they were clear to me","Slight Agreement","Neither Agreement nor Disagreement","Moderate Disagreement","Neither Agreement nor Disagreement","Slight Agreement","Moderate Agreement","Moderate Disagreement","Neither Agreement nor Disagreement","Slight Disagreement","Slight Agreement","Neither Agreement nor Disagreement","Slight Disagreement","Slight Agreement","Neither Agreement nor Disagreement","Slight Disagreement","Slight Disagreement","Moderate Disagreement","Moderate Disagreement"
"48","A2WYCY1FMQOD5F:31QNSG6A5SZ7EAQAF2Y6G0GN89U87W","1",1,12,3,"50","<p style=""font-size:100px""><b>T</b></p><p style=""position: absolute; top: 30px; right: 30px; text-align:right; font-size:50px"""">N = 3</p>","T",0,73,476.400000095367,1,"agree",16,16,17,14,15,"32","Male","they were clear to me","Slight Agreement","Neither Agreement nor Disagreement","Moderate Disagreement","Neither Agreement nor Disagreement","Slight Agreement","Moderate Agreement","Moderate Disagreement","Neither Agreement nor Disagreement","Slight Disagreement","Slight Agreement","Neither Agreement nor Disagreement","Slight Disagreement","Slight Agreement","Neither Agreement nor Disagreement","Slight Disagreement","Slight Disagreement","Moderate Disagreement","Moderate Disagreement"
"49","A2WYCY1FMQOD5F:31QNSG6A5SZ7EAQAF2Y6G0GN89U87W","1",2,1,2,"50","<p style=""font-size:100px""><b>g</b></p><p style=""position: absolute; top: 30px; right: 30px; text-align:right; font-size:50px"""">N = 2</p>","g",0,73,544.900000095367,1,"agree",17,16,14,15,15,"32","Male","they were clear to me","Slight Agreement","Neither Agreement nor Disagreement","Moderate Disagreement","Neither Agreement nor Disagreement","Slight Agreement","Moderate Agreement","Moderate Disagreement","Neither Agreement nor Disagreement","Slight Disagreement","Slight Agreement","Neither Agreement nor Disagreement","Slight Disagreement","Slight Agreement","Neither Agreement nor Disagreement","Slight Disagreement","Slight Disagreement","Moderate Disagreement","Moderate Disagreement"
"50","A2WYCY1FMQOD5F:31QNSG6A5SZ7EAQAF2Y6G0GN89U87W","1",2,2,2,"50","<p style=""font-size:100px""><b>d</b></p><p style=""position: absolute; top: 30px; right: 30px; text-align:right; font-size:50px"""">N = 2</p>","d",0,73,762.300000190735,1,"agree",17,16,14,15,15,"32","Male","they were clear to me","Slight Agreement","Neither Agreement nor Disagreement","Moderate Disagreement","Neither Agreement nor Disagreement","Slight Agreement","Moderate Agreement","Moderate Disagreement","Neither Agreement nor Disagreement","Slight Disagreement","Slight Agreement","Neither Agreement nor Disagreement","Slight Disagreement","Slight Agreement","Neither Agreement nor Disagreement","Slight Disagreement","Slight Disagreement","Moderate Disagreement","Moderate Disagreement"
"51","A2WYCY1FMQOD5F:31QNSG6A5SZ7EAQAF2Y6G0GN89U87W","1",2,3,2,"50","<p style=""font-size:100px""><b>g</b></p><p style=""position: absolute; top: 30px; right: 30px; text-align:right; font-size:50px"""">N = 2</p>","g",0,69,747.400000095367,0,"agree",17,16,14,15,15,"32","Male","they were clear to me","Slight Agreement","Neither Agreement nor Disagreement","Moderate Disagreement","Neither Agreement nor Disagreement","Slight Agreement","Moderate Agreement","Moderate Disagreement","Neither Agreement nor Disagreement","Slight Disagreement","Slight Agreement","Neither Agreement nor Disagreement","Slight Disagreement","Slight Agreement","Neither Agreement nor Disagreement","Slight Disagreement","Slight Disagreement","Moderate Disagreement","Moderate Disagreement"
"52","A2WYCY1FMQOD5F:31QNSG6A5SZ7EAQAF2Y6G0GN89U87W","1",2,4,2,"50","<p style=""font-size:100px""><b>V</b></p><p style=""position: absolute; top: 30px; right: 30px; text-align:right; font-size:50px"""">N = 2</p>","V",0,73,811.800000190735,1,"agree",17,16,14,15,15,"32","Male","they were clear to me","Slight Agreement","Neither Agreement nor Disagreement","Moderate Disagreement","Neither Agreement nor Disagreement","Slight Agreement","Moderate Agreement","Moderate Disagreement","Neither Agreement nor Disagreement","Slight Disagreement","Slight Agreement","Neither Agreement nor Disagreement","Slight Disagreement","Slight Agreement","Neither Agreement nor Disagreement","Slight Disagreement","Slight Disagreement","Moderate Disagreement","Moderate Disagreement"
"53","A2WYCY1FMQOD5F:31QNSG6A5SZ7EAQAF2Y6G0GN89U87W","1",2,5,2,"50","<p style=""font-size:100px""><b>D</b></p><p style=""position: absolute; top: 30px; right: 30px; text-align:right; font-size:50px"""">N = 2</p>","D",0,73,932.200000286102,1,"agree",17,16,14,15,15,"32","Male","they were clear to me","Slight Agreement","Neither Agreement nor Disagreement","Moderate Disagreement","Neither Agreement nor Disagreement","Slight Agreement","Moderate Agreement","Moderate Disagreement","Neither Agreement nor Disagreement","Slight Disagreement","Slight Agreement","Neither Agreement nor Disagreement","Slight Disagreement","Slight Agreement","Neither Agreement nor Disagreement","Slight Disagreement","Slight Disagreement","Moderate Disagreement","Moderate Disagreement"
"54","A2WYCY1FMQOD5F:31QNSG6A5SZ7EAQAF2Y6G0GN89U87W","1",2,6,2,"50","<p style=""font-size:100px""><b>V</b></p><p style=""position: absolute; top: 30px; right: 30px; text-align:right; font-size:50px"""">N = 2</p>","V",0,73,781.200000286102,1,"agree",17,16,14,15,15,"32","Male","they were clear to me","Slight Agreement","Neither Agreement nor Disagreement","Moderate Disagreement","Neither Agreement nor Disagreement","Slight Agreement","Moderate Agreement","Moderate Disagreement","Neither Agreement nor Disagreement","Slight Disagreement","Slight Agreement","Neither Agreement nor Disagreement","Slight Disagreement","Slight Agreement","Neither Agreement nor Disagreement","Slight Disagreement","Slight Disagreement","Moderate Disagreement","Moderate Disagreement"
"55","A2WYCY1FMQOD5F:31QNSG6A5SZ7EAQAF2Y6G0GN89U87W","1",2,7,2,"50","<p style=""font-size:100px""><b>g</b></p><p style=""position: absolute; top: 30px; right: 30px; text-align:right; font-size:50px"""">N = 2</p>","g",0,73,966.400000095367,1,"agree",17,16,14,15,15,"32","Male","they were clear to me","Slight Agreement","Neither Agreement nor Disagreement","Moderate Disagreement","Neither Agreement nor Disagreement","Slight Agreement","Moderate Agreement","Moderate Disagreement","Neither Agreement nor Disagreement","Slight Disagreement","Slight Agreement","Neither Agreement nor Disagreement","Slight Disagreement","Slight Agreement","Neither Agreement nor Disagreement","Slight Disagreement","Slight Disagreement","Moderate Disagreement","Moderate Disagreement"
"56","A2WYCY1FMQOD5F:31QNSG6A5SZ7EAQAF2Y6G0GN89U87W","1",2,8,2,"50","<p style=""font-size:100px""><b>p</b></p><p style=""position: absolute; top: 30px; right: 30px; text-align:right; font-size:50px"""">N = 2</p>","p",0,73,447.800000190735,1,"agree",17,16,14,15,15,"32","Male","they were clear to me","Slight Agreement","Neither Agreement nor Disagreement","Moderate Disagreement","Neither Agreement nor Disagreement","Slight Agreement","Moderate Agreement","Moderate Disagreement","Neither Agreement nor Disagreement","Slight Disagreement","Slight Agreement","Neither Agreement nor Disagreement","Slight Disagreement","Slight Agreement","Neither Agreement nor Disagreement","Slight Disagreement","Slight Disagreement","Moderate Disagreement","Moderate Disagreement"
"57","A2WYCY1FMQOD5F:31QNSG6A5SZ7EAQAF2Y6G0GN89U87W","1",2,9,2,"50","<p style=""font-size:100px""><b>d</b></p><p style=""position: absolute; top: 30px; right: 30px; text-align:right; font-size:50px"""">N = 2</p>","d",0,73,759.39999961853,1,"agree",17,16,14,15,15,"32","Male","they were clear to me","Slight Agreement","Neither Agreement nor Disagreement","Moderate Disagreement","Neither Agreement nor Disagreement","Slight Agreement","Moderate Agreement","Moderate Disagreement","Neither Agreement nor Disagreement","Slight Disagreement","Slight Agreement","Neither Agreement nor Disagreement","Slight Disagreement","Slight Agreement","Neither Agreement nor Disagreement","Slight Disagreement","Slight Disagreement","Moderate Disagreement","Moderate Disagreement"
"58","A2WYCY1FMQOD5F:31QNSG6A5SZ7EAQAF2Y6G0GN89U87W","1",2,10,2,"50","<p style=""font-size:100px""><b>p</b></p><p style=""position: absolute; top: 30px; right: 30px; text-align:right; font-size:50px"""">N = 2</p>","p",0,69,591.900000095367,0,"agree",17,16,14,15,15,"32","Male","they were clear to me","Slight Agreement","Neither Agreement nor Disagreement","Moderate Disagreement","Neither Agreement nor Disagreement","Slight Agreement","Moderate Agreement","Moderate Disagreement","Neither Agreement nor Disagreement","Slight Disagreement","Slight Agreement","Neither Agreement nor Disagreement","Slight Disagreement","Slight Agreement","Neither Agreement nor Disagreement","Slight Disagreement","Slight Disagreement","Moderate Disagreement","Moderate Disagreement"
"59","A2WYCY1FMQOD5F:31QNSG6A5SZ7EAQAF2Y6G0GN89U87W","1",2,11,2,"50","<p style=""font-size:100px""><b>T</b></p><p style=""position: absolute; top: 30px; right: 30px; text-align:right; font-size:50px"""">N = 2</p>","T",0,73,706.400000095367,1,"agree",17,16,14,15,15,"32","Male","they were clear to me","Slight Agreement","Neither Agreement nor Disagreement","Moderate Disagreement","Neither Agreement nor Disagreement","Slight Agreement","Moderate Agreement","Moderate Disagreement","Neither Agreement nor Disagreement","Slight Disagreement","Slight Agreement","Neither Agreement nor Disagreement","Slight Disagreement","Slight Agreement","Neither Agreement nor Disagreement","Slight Disagreement","Slight Disagreement","Moderate Disagreement","Moderate Disagreement"
"60","A2WYCY1FMQOD5F:31QNSG6A5SZ7EAQAF2Y6G0GN89U87W","1",2,12,2,"50","<p style=""font-size:100px""><b>p</b></p><p style=""position: absolute; top: 30px; right: 30px; text-align:right; font-size:50px"""">N = 2</p>","p",0,73,895.300000190735,1,"agree",17,16,14,15,15,"32","Male","they were clear to me","Slight Agreement","Neither Agreement nor Disagreement","Moderate Disagreement","Neither Agreement nor Disagreement","Slight Agreement","Moderate Agreement","Moderate Disagreement","Neither Agreement nor Disagreement","Slight Disagreement","Slight Agreement","Neither Agreement nor Disagreement","Slight Disagreement","Slight Agreement","Neither Agreement nor Disagreement","Slight Disagreement","Slight Disagreement","Moderate Disagreement","Moderate Disagreement"
"61","A2WYCY1FMQOD5F:31QNSG6A5SZ7EAQAF2Y6G0GN89U87W","1",3,1,3,"50","<p style=""font-size:100px""><b>b</b></p><p style=""position: absolute; top: 30px; right: 30px; text-align:right; font-size:50px"""">N = 3</p>","b",0,NA,NA,0,"agree",14,16,13,18,15,"32","Male","they were clear to me","Slight Agreement","Neither Agreement nor Disagreement","Moderate Disagreement","Neither Agreement nor Disagreement","Slight Agreement","Moderate Agreement","Moderate Disagreement","Neither Agreement nor Disagreement","Slight Disagreement","Slight Agreement","Neither Agreement nor Disagreement","Slight Disagreement","Slight Agreement","Neither Agreement nor Disagreement","Slight Disagreement","Slight Disagreement","Moderate Disagreement","Moderate Disagreement"
"62","A2WYCY1FMQOD5F:31QNSG6A5SZ7EAQAF2Y6G0GN89U87W","1",3,2,3,"50","<p style=""font-size:100px""><b>P</b></p><p style=""position: absolute; top: 30px; right: 30px; text-align:right; font-size:50px"""">N = 3</p>","P",0,NA,NA,0,"agree",14,16,13,18,15,"32","Male","they were clear to me","Slight Agreement","Neither Agreement nor Disagreement","Moderate Disagreement","Neither Agreement nor Disagreement","Slight Agreement","Moderate Agreement","Moderate Disagreement","Neither Agreement nor Disagreement","Slight Disagreement","Slight Agreement","Neither Agreement nor Disagreement","Slight Disagreement","Slight Agreement","Neither Agreement nor Disagreement","Slight Disagreement","Slight Disagreement","Moderate Disagreement","Moderate Disagreement"
"63","A2WYCY1FMQOD5F:31QNSG6A5SZ7EAQAF2Y6G0GN89U87W","1",3,3,3,"50","<p style=""font-size:100px""><b>D</b></p><p style=""position: absolute; top: 30px; right: 30px; text-align:right; font-size:50px"""">N = 3</p>","D",0,73,767,1,"agree",14,16,13,18,15,"32","Male","they were clear to me","Slight Agreement","Neither Agreement nor Disagreement","Moderate Disagreement","Neither Agreement nor Disagreement","Slight Agreement","Moderate Agreement","Moderate Disagreement","Neither Agreement nor Disagreement","Slight Disagreement","Slight Agreement","Neither Agreement nor Disagreement","Slight Disagreement","Slight Agreement","Neither Agreement nor Disagreement","Slight Disagreement","Slight Disagreement","Moderate Disagreement","Moderate Disagreement"
"64","A2WYCY1FMQOD5F:31QNSG6A5SZ7EAQAF2Y6G0GN89U87W","1",3,4,3,"50","<p style=""font-size:100px""><b>v</b></p><p style=""position: absolute; top: 30px; right: 30px; text-align:right; font-size:50px"""">N = 3</p>","v",0,73,841.10000038147,1,"agree",14,16,13,18,15,"32","Male","they were clear to me","Slight Agreement","Neither Agreement nor Disagreement","Moderate Disagreement","Neither Agreement nor Disagreement","Slight Agreement","Moderate Agreement","Moderate Disagreement","Neither Agreement nor Disagreement","Slight Disagreement","Slight Agreement","Neither Agreement nor Disagreement","Slight Disagreement","Slight Agreement","Neither Agreement nor Disagreement","Slight Disagreement","Slight Disagreement","Moderate Disagreement","Moderate Disagreement"
"65","A2WYCY1FMQOD5F:31QNSG6A5SZ7EAQAF2Y6G0GN89U87W","1",3,5,3,"50","<p style=""font-size:100px""><b>g</b></p><p style=""position: absolute; top: 30px; right: 30px; text-align:right; font-size:50px"""">N = 3</p>","g",0,69,473.900000095367,0,"agree",14,16,13,18,15,"32","Male","they were clear to me","Slight Agreement","Neither Agreement nor Disagreement","Moderate Disagreement","Neither Agreement nor Disagreement","Slight Agreement","Moderate Agreement","Moderate Disagreement","Neither Agreement nor Disagreement","Slight Disagreement","Slight Agreement","Neither Agreement nor Disagreement","Slight Disagreement","Slight Agreement","Neither Agreement nor Disagreement","Slight Disagreement","Slight Disagreement","Moderate Disagreement","Moderate Disagreement"
"66","A2WYCY1FMQOD5F:31QNSG6A5SZ7EAQAF2Y6G0GN89U87W","1",3,6,3,"50","<p style=""font-size:100px""><b>D</b></p><p style=""position: absolute; top: 30px; right: 30px; text-align:right; font-size:50px"""">N = 3</p>","D",0,73,498,1,"agree",14,16,13,18,15,"32","Male","they were clear to me","Slight Agreement","Neither Agreement nor Disagreement","Moderate Disagreement","Neither Agreement nor Disagreement","Slight Agreement","Moderate Agreement","Moderate Disagreement","Neither Agreement nor Disagreement","Slight Disagreement","Slight Agreement","Neither Agreement nor Disagreement","Slight Disagreement","Slight Agreement","Neither Agreement nor Disagreement","Slight Disagreement","Slight Disagreement","Moderate Disagreement","Moderate Disagreement"
"67","A2WYCY1FMQOD5F:31QNSG6A5SZ7EAQAF2Y6G0GN89U87W","1",3,7,3,"50","<p style=""font-size:100px""><b>p</b></p><p style=""position: absolute; top: 30px; right: 30px; text-align:right; font-size:50px"""">N = 3</p>","p",0,73,755.10000038147,1,"agree",14,16,13,18,15,"32","Male","they were clear to me","Slight Agreement","Neither Agreement nor Disagreement","Moderate Disagreement","Neither Agreement nor Disagreement","Slight Agreement","Moderate Agreement","Moderate Disagreement","Neither Agreement nor Disagreement","Slight Disagreement","Slight Agreement","Neither Agreement nor Disagreement","Slight Disagreement","Slight Agreement","Neither Agreement nor Disagreement","Slight Disagreement","Slight Disagreement","Moderate Disagreement","Moderate Disagreement"
"68","A2WYCY1FMQOD5F:31QNSG6A5SZ7EAQAF2Y6G0GN89U87W","1",3,8,3,"50","<p style=""font-size:100px""><b>g</b></p><p style=""position: absolute; top: 30px; right: 30px; text-align:right; font-size:50px"""">N = 3</p>","g",0,69,541.400000095367,0,"agree",14,16,13,18,15,"32","Male","they were clear to me","Slight Agreement","Neither Agreement nor Disagreement","Moderate Disagreement","Neither Agreement nor Disagreement","Slight Agreement","Moderate Agreement","Moderate Disagreement","Neither Agreement nor Disagreement","Slight Disagreement","Slight Agreement","Neither Agreement nor Disagreement","Slight Disagreement","Slight Agreement","Neither Agreement nor Disagreement","Slight Disagreement","Slight Disagreement","Moderate Disagreement","Moderate Disagreement"
"69","A2WYCY1FMQOD5F:31QNSG6A5SZ7EAQAF2Y6G0GN89U87W","1",3,9,3,"50","<p style=""font-size:100px""><b>D</b></p><p style=""position: absolute; top: 30px; right: 30px; text-align:right; font-size:50px"""">N = 3</p>","D",0,73,607.60000038147,1,"agree",14,16,13,18,15,"32","Male","they were clear to me","Slight Agreement","Neither Agreement nor Disagreement","Moderate Disagreement","Neither Agreement nor Disagreement","Slight Agreement","Moderate Agreement","Moderate Disagreement","Neither Agreement nor Disagreement","Slight Disagreement","Slight Agreement","Neither Agreement nor Disagreement","Slight Disagreement","Slight Agreement","Neither Agreement nor Disagreement","Slight Disagreement","Slight Disagreement","Moderate Disagreement","Moderate Disagreement"
"70","A2WYCY1FMQOD5F:31QNSG6A5SZ7EAQAF2Y6G0GN89U87W","1",3,10,3,"50","<p style=""font-size:100px""><b>p</b></p><p style=""position: absolute; top: 30px; right: 30px; text-align:right; font-size:50px"""">N = 3</p>","p",0,73,386,1,"agree",14,16,13,18,15,"32","Male","they were clear to me","Slight Agreement","Neither Agreement nor Disagreement","Moderate Disagreement","Neither Agreement nor Disagreement","Slight Agreement","Moderate Agreement","Moderate Disagreement","Neither Agreement nor Disagreement","Slight Disagreement","Slight Agreement","Neither Agreement nor Disagreement","Slight Disagreement","Slight Agreement","Neither Agreement nor Disagreement","Slight Disagreement","Slight Disagreement","Moderate Disagreement","Moderate Disagreement"
"71","A2WYCY1FMQOD5F:31QNSG6A5SZ7EAQAF2Y6G0GN89U87W","1",3,11,3,"50","<p style=""font-size:100px""><b>d</b></p><p style=""position: absolute; top: 30px; right: 30px; text-align:right; font-size:50px"""">N = 3</p>","d",0,69,699.60000038147,0,"agree",14,16,13,18,15,"32","Male","they were clear to me","Slight Agreement","Neither Agreement nor Disagreement","Moderate Disagreement","Neither Agreement nor Disagreement","Slight Agreement","Moderate Agreement","Moderate Disagreement","Neither Agreement nor Disagreement","Slight Disagreement","Slight Agreement","Neither Agreement nor Disagreement","Slight Disagreement","Slight Agreement","Neither Agreement nor Disagreement","Slight Disagreement","Slight Disagreement","Moderate Disagreement","Moderate Disagreement"
"72","A2WYCY1FMQOD5F:31QNSG6A5SZ7EAQAF2Y6G0GN89U87W","1",3,12,3,"50","<p style=""font-size:100px""><b>T</b></p><p style=""position: absolute; top: 30px; right: 30px; text-align:right; font-size:50px"""">N = 3</p>","T",0,73,396.400000095367,1,"agree",14,16,13,18,15,"32","Male","they were clear to me","Slight Agreement","Neither Agreement nor Disagreement","Moderate Disagreement","Neither Agreement nor Disagreement","Slight Agreement","Moderate Agreement","Moderate Disagreement","Neither Agreement nor Disagreement","Slight Disagreement","Slight Agreement","Neither Agreement nor Disagreement","Slight Disagreement","Slight Agreement","Neither Agreement nor Disagreement","Slight Disagreement","Slight Disagreement","Moderate Disagreement","Moderate Disagreement"
"73","A2WYCY1FMQOD5F:31QNSG6A5SZ7EAQAF2Y6G0GN89U87W","1",4,1,1,"50","<p style=""font-size:100px""><b>b</b></p><p style=""position: absolute; top: 30px; right: 30px; text-align:right; font-size:50px"""">N = 1</p>","b",0,73,426.900000095367,1,"agree",16,15,16,18,15,"32","Male","they were clear to me","Slight Agreement","Neither Agreement nor Disagreement","Moderate Disagreement","Neither Agreement nor Disagreement","Slight Agreement","Moderate Agreement","Moderate Disagreement","Neither Agreement nor Disagreement","Slight Disagreement","Slight Agreement","Neither Agreement nor Disagreement","Slight Disagreement","Slight Agreement","Neither Agreement nor Disagreement","Slight Disagreement","Slight Disagreement","Moderate Disagreement","Moderate Disagreement"
"74","A2WYCY1FMQOD5F:31QNSG6A5SZ7EAQAF2Y6G0GN89U87W","1",4,2,1,"50","<p style=""font-size:100px""><b>v</b></p><p style=""position: absolute; top: 30px; right: 30px; text-align:right; font-size:50px"""">N = 1</p>","v",0,73,508.10000038147,1,"agree",16,15,16,18,15,"32","Male","they were clear to me","Slight Agreement","Neither Agreement nor Disagreement","Moderate Disagreement","Neither Agreement nor Disagreement","Slight Agreement","Moderate Agreement","Moderate Disagreement","Neither Agreement nor Disagreement","Slight Disagreement","Slight Agreement","Neither Agreement nor Disagreement","Slight Disagreement","Slight Agreement","Neither Agreement nor Disagreement","Slight Disagreement","Slight Disagreement","Moderate Disagreement","Moderate Disagreement"
"75","A2WYCY1FMQOD5F:31QNSG6A5SZ7EAQAF2Y6G0GN89U87W","1",4,3,1,"50","<p style=""font-size:100px""><b>v</b></p><p style=""position: absolute; top: 30px; right: 30px; text-align:right; font-size:50px"""">N = 1</p>","v",0,69,550,0,"agree",16,15,16,18,15,"32","Male","they were clear to me","Slight Agreement","Neither Agreement nor Disagreement","Moderate Disagreement","Neither Agreement nor Disagreement","Slight Agreement","Moderate Agreement","Moderate Disagreement","Neither Agreement nor Disagreement","Slight Disagreement","Slight Agreement","Neither Agreement nor Disagreement","Slight Disagreement","Slight Agreement","Neither Agreement nor Disagreement","Slight Disagreement","Slight Disagreement","Moderate Disagreement","Moderate Disagreement"
"76","A2WYCY1FMQOD5F:31QNSG6A5SZ7EAQAF2Y6G0GN89U87W","1",4,4,1,"50","<p style=""font-size:100px""><b>p</b></p><p style=""position: absolute; top: 30px; right: 30px; text-align:right; font-size:50px"""">N = 1</p>","p",0,73,432.10000038147,1,"agree",16,15,16,18,15,"32","Male","they were clear to me","Slight Agreement","Neither Agreement nor Disagreement","Moderate Disagreement","Neither Agreement nor Disagreement","Slight Agreement","Moderate Agreement","Moderate Disagreement","Neither Agreement nor Disagreement","Slight Disagreement","Slight Agreement","Neither Agreement nor Disagreement","Slight Disagreement","Slight Agreement","Neither Agreement nor Disagreement","Slight Disagreement","Slight Disagreement","Moderate Disagreement","Moderate Disagreement"
"77","A2WYCY1FMQOD5F:31QNSG6A5SZ7EAQAF2Y6G0GN89U87W","1",4,5,1,"50","<p style=""font-size:100px""><b>p</b></p><p style=""position: absolute; top: 30px; right: 30px; text-align:right; font-size:50px"""">N = 1</p>","p",0,69,594.900000095367,0,"agree",16,15,16,18,15,"32","Male","they were clear to me","Slight Agreement","Neither Agreement nor Disagreement","Moderate Disagreement","Neither Agreement nor Disagreement","Slight Agreement","Moderate Agreement","Moderate Disagreement","Neither Agreement nor Disagreement","Slight Disagreement","Slight Agreement","Neither Agreement nor Disagreement","Slight Disagreement","Slight Agreement","Neither Agreement nor Disagreement","Slight Disagreement","Slight Disagreement","Moderate Disagreement","Moderate Disagreement"
"78","A2WYCY1FMQOD5F:31QNSG6A5SZ7EAQAF2Y6G0GN89U87W","1",4,6,1,"50","<p style=""font-size:100px""><b>D</b></p><p style=""position: absolute; top: 30px; right: 30px; text-align:right; font-size:50px"""">N = 1</p>","D",0,73,484.599999904633,1,"agree",16,15,16,18,15,"32","Male","they were clear to me","Slight Agreement","Neither Agreement nor Disagreement","Moderate Disagreement","Neither Agreement nor Disagreement","Slight Agreement","Moderate Agreement","Moderate Disagreement","Neither Agreement nor Disagreement","Slight Disagreement","Slight Agreement","Neither Agreement nor Disagreement","Slight Disagreement","Slight Agreement","Neither Agreement nor Disagreement","Slight Disagreement","Slight Disagreement","Moderate Disagreement","Moderate Disagreement"
"79","A2WYCY1FMQOD5F:31QNSG6A5SZ7EAQAF2Y6G0GN89U87W","1",4,7,1,"50","<p style=""font-size:100px""><b>B</b></p><p style=""position: absolute; top: 30px; right: 30px; text-align:right; font-size:50px"""">N = 1</p>","B",0,73,517.39999961853,1,"agree",16,15,16,18,15,"32","Male","they were clear to me","Slight Agreement","Neither Agreement nor Disagreement","Moderate Disagreement","Neither Agreement nor Disagreement","Slight Agreement","Moderate Agreement","Moderate Disagreement","Neither Agreement nor Disagreement","Slight Disagreement","Slight Agreement","Neither Agreement nor Disagreement","Slight Disagreement","Slight Agreement","Neither Agreement nor Disagreement","Slight Disagreement","Slight Disagreement","Moderate Disagreement","Moderate Disagreement"
"80","A2WYCY1FMQOD5F:31QNSG6A5SZ7EAQAF2Y6G0GN89U87W","1",4,8,1,"50","<p style=""font-size:100px""><b>V</b></p><p style=""position: absolute; top: 30px; right: 30px; text-align:right; font-size:50px"""">N = 1</p>","V",0,73,558.900000095367,1,"agree",16,15,16,18,15,"32","Male","they were clear to me","Slight Agreement","Neither Agreement nor Disagreement","Moderate Disagreement","Neither Agreement nor Disagreement","Slight Agreement","Moderate Agreement","Moderate Disagreement","Neither Agreement nor Disagreement","Slight Disagreement","Slight Agreement","Neither Agreement nor Disagreement","Slight Disagreement","Slight Agreement","Neither Agreement nor Disagreement","Slight Disagreement","Slight Disagreement","Moderate Disagreement","Moderate Disagreement"
"81","A2WYCY1FMQOD5F:31QNSG6A5SZ7EAQAF2Y6G0GN89U87W","1",4,9,1,"50","<p style=""font-size:100px""><b>V</b></p><p style=""position: absolute; top: 30px; right: 30px; text-align:right; font-size:50px"""">N = 1</p>","V",0,69,464.700000286102,0,"agree",16,15,16,18,15,"32","Male","they were clear to me","Slight Agreement","Neither Agreement nor Disagreement","Moderate Disagreement","Neither Agreement nor Disagreement","Slight Agreement","Moderate Agreement","Moderate Disagreement","Neither Agreement nor Disagreement","Slight Disagreement","Slight Agreement","Neither Agreement nor Disagreement","Slight Disagreement","Slight Agreement","Neither Agreement nor Disagreement","Slight Disagreement","Slight Disagreement","Moderate Disagreement","Moderate Disagreement"
"82","A2WYCY1FMQOD5F:31QNSG6A5SZ7EAQAF2Y6G0GN89U87W","1",4,10,1,"50","<p style=""font-size:100px""><b>p</b></p><p style=""position: absolute; top: 30px; right: 30px; text-align:right; font-size:50px"""">N = 1</p>","p",0,73,369.5,1,"agree",16,15,16,18,15,"32","Male","they were clear to me","Slight Agreement","Neither Agreement nor Disagreement","Moderate Disagreement","Neither Agreement nor Disagreement","Slight Agreement","Moderate Agreement","Moderate Disagreement","Neither Agreement nor Disagreement","Slight Disagreement","Slight Agreement","Neither Agreement nor Disagreement","Slight Disagreement","Slight Agreement","Neither Agreement nor Disagreement","Slight Disagreement","Slight Disagreement","Moderate Disagreement","Moderate Disagreement"
"83","A2WYCY1FMQOD5F:31QNSG6A5SZ7EAQAF2Y6G0GN89U87W","1",4,11,1,"50","<p style=""font-size:100px""><b>p</b></p><p style=""position: absolute; top: 30px; right: 30px; text-align:right; font-size:50px"""">N = 1</p>","p",0,69,507.400000095367,0,"agree",16,15,16,18,15,"32","Male","they were clear to me","Slight Agreement","Neither Agreement nor Disagreement","Moderate Disagreement","Neither Agreement nor Disagreement","Slight Agreement","Moderate Agreement","Moderate Disagreement","Neither Agreement nor Disagreement","Slight Disagreement","Slight Agreement","Neither Agreement nor Disagreement","Slight Disagreement","Slight Agreement","Neither Agreement nor Disagreement","Slight Disagreement","Slight Disagreement","Moderate Disagreement","Moderate Disagreement"
"84","A2WYCY1FMQOD5F:31QNSG6A5SZ7EAQAF2Y6G0GN89U87W","1",4,12,1,"50","<p style=""font-size:100px""><b>B</b></p><p style=""position: absolute; top: 30px; right: 30px; text-align:right; font-size:50px"""">N = 1</p>","B",0,73,373.60000038147,1,"agree",16,15,16,18,15,"32","Male","they were clear to me","Slight Agreement","Neither Agreement nor Disagreement","Moderate Disagreement","Neither Agreement nor Disagreement","Slight Agreement","Moderate Agreement","Moderate Disagreement","Neither Agreement nor Disagreement","Slight Disagreement","Slight Agreement","Neither Agreement nor Disagreement","Slight Disagreement","Slight Agreement","Neither Agreement nor Disagreement","Slight Disagreement","Slight Disagreement","Moderate Disagreement","Moderate Disagreement"
"85","A2WYCY1FMQOD5F:31QNSG6A5SZ7EAQAF2Y6G0GN89U87W","1",5,1,1,"5","<p style=""font-size:100px""><b>V</b></p><p style=""position: absolute; top: 30px; right: 30px; text-align:right; font-size:50px"""">N = 1</p>","V",0,73,473.800000190735,1,"agree",15,15,16,18,15,"32","Male","they were clear to me","Slight Agreement","Neither Agreement nor Disagreement","Moderate Disagreement","Neither Agreement nor Disagreement","Slight Agreement","Moderate Agreement","Moderate Disagreement","Neither Agreement nor Disagreement","Slight Disagreement","Slight Agreement","Neither Agreement nor Disagreement","Slight Disagreement","Slight Agreement","Neither Agreement nor Disagreement","Slight Disagreement","Slight Disagreement","Moderate Disagreement","Moderate Disagreement"
"86","A2WYCY1FMQOD5F:31QNSG6A5SZ7EAQAF2Y6G0GN89U87W","1",5,2,1,"5","<p style=""font-size:100px""><b>P</b></p><p style=""position: absolute; top: 30px; right: 30px; text-align:right; font-size:50px"""">N = 1</p>","P",0,73,433.5,1,"agree",15,15,16,18,15,"32","Male","they were clear to me","Slight Agreement","Neither Agreement nor Disagreement","Moderate Disagreement","Neither Agreement nor Disagreement","Slight Agreement","Moderate Agreement","Moderate Disagreement","Neither Agreement nor Disagreement","Slight Disagreement","Slight Agreement","Neither Agreement nor Disagreement","Slight Disagreement","Slight Agreement","Neither Agreement nor Disagreement","Slight Disagreement","Slight Disagreement","Moderate Disagreement","Moderate Disagreement"
"87","A2WYCY1FMQOD5F:31QNSG6A5SZ7EAQAF2Y6G0GN89U87W","1",5,3,1,"5","<p style=""font-size:100px""><b>v</b></p><p style=""position: absolute; top: 30px; right: 30px; text-align:right; font-size:50px"""">N = 1</p>","v",0,73,651.39999961853,1,"agree",15,15,16,18,15,"32","Male","they were clear to me","Slight Agreement","Neither Agreement nor Disagreement","Moderate Disagreement","Neither Agreement nor Disagreement","Slight Agreement","Moderate Agreement","Moderate Disagreement","Neither Agreement nor Disagreement","Slight Disagreement","Slight Agreement","Neither Agreement nor Disagreement","Slight Disagreement","Slight Agreement","Neither Agreement nor Disagreement","Slight Disagreement","Slight Disagreement","Moderate Disagreement","Moderate Disagreement"
"88","A2WYCY1FMQOD5F:31QNSG6A5SZ7EAQAF2Y6G0GN89U87W","1",5,4,1,"5","<p style=""font-size:100px""><b>v</b></p><p style=""position: absolute; top: 30px; right: 30px; text-align:right; font-size:50px"""">N = 1</p>","v",0,69,557,0,"agree",15,15,16,18,15,"32","Male","they were clear to me","Slight Agreement","Neither Agreement nor Disagreement","Moderate Disagreement","Neither Agreement nor Disagreement","Slight Agreement","Moderate Agreement","Moderate Disagreement","Neither Agreement nor Disagreement","Slight Disagreement","Slight Agreement","Neither Agreement nor Disagreement","Slight Disagreement","Slight Agreement","Neither Agreement nor Disagreement","Slight Disagreement","Slight Disagreement","Moderate Disagreement","Moderate Disagreement"
"89","A2WYCY1FMQOD5F:31QNSG6A5SZ7EAQAF2Y6G0GN89U87W","1",5,5,1,"5","<p style=""font-size:100px""><b>t</b></p><p style=""position: absolute; top: 30px; right: 30px; text-align:right; font-size:50px"""">N = 1</p>","t",0,73,508.60000038147,1,"agree",15,15,16,18,15,"32","Male","they were clear to me","Slight Agreement","Neither Agreement nor Disagreement","Moderate Disagreement","Neither Agreement nor Disagreement","Slight Agreement","Moderate Agreement","Moderate Disagreement","Neither Agreement nor Disagreement","Slight Disagreement","Slight Agreement","Neither Agreement nor Disagreement","Slight Disagreement","Slight Agreement","Neither Agreement nor Disagreement","Slight Disagreement","Slight Disagreement","Moderate Disagreement","Moderate Disagreement"
"90","A2WYCY1FMQOD5F:31QNSG6A5SZ7EAQAF2Y6G0GN89U87W","1",5,6,1,"5","<p style=""font-size:100px""><b>p</b></p><p style=""position: absolute; top: 30px; right: 30px; text-align:right; font-size:50px"""">N = 1</p>","p",0,73,542.89999961853,1,"agree",15,15,16,18,15,"32","Male","they were clear to me","Slight Agreement","Neither Agreement nor Disagreement","Moderate Disagreement","Neither Agreement nor Disagreement","Slight Agreement","Moderate Agreement","Moderate Disagreement","Neither Agreement nor Disagreement","Slight Disagreement","Slight Agreement","Neither Agreement nor Disagreement","Slight Disagreement","Slight Agreement","Neither Agreement nor Disagreement","Slight Disagreement","Slight Disagreement","Moderate Disagreement","Moderate Disagreement"
"91","A2WYCY1FMQOD5F:31QNSG6A5SZ7EAQAF2Y6G0GN89U87W","1",5,7,1,"5","<p style=""font-size:100px""><b>p</b></p><p style=""position: absolute; top: 30px; right: 30px; text-align:right; font-size:50px"""">N = 1</p>","p",0,69,545.200000286102,0,"agree",15,15,16,18,15,"32","Male","they were clear to me","Slight Agreement","Neither Agreement nor Disagreement","Moderate Disagreement","Neither Agreement nor Disagreement","Slight Agreement","Moderate Agreement","Moderate Disagreement","Neither Agreement nor Disagreement","Slight Disagreement","Slight Agreement","Neither Agreement nor Disagreement","Slight Disagreement","Slight Agreement","Neither Agreement nor Disagreement","Slight Disagreement","Slight Disagreement","Moderate Disagreement","Moderate Disagreement"
"92","A2WYCY1FMQOD5F:31QNSG6A5SZ7EAQAF2Y6G0GN89U87W","1",5,8,1,"5","<p style=""font-size:100px""><b>p</b></p><p style=""position: absolute; top: 30px; right: 30px; text-align:right; font-size:50px"""">N = 1</p>","p",0,69,657.199999809265,0,"agree",15,15,16,18,15,"32","Male","they were clear to me","Slight Agreement","Neither Agreement nor Disagreement","Moderate Disagreement","Neither Agreement nor Disagreement","Slight Agreement","Moderate Agreement","Moderate Disagreement","Neither Agreement nor Disagreement","Slight Disagreement","Slight Agreement","Neither Agreement nor Disagreement","Slight Disagreement","Slight Agreement","Neither Agreement nor Disagreement","Slight Disagreement","Slight Disagreement","Moderate Disagreement","Moderate Disagreement"
"93","A2WYCY1FMQOD5F:31QNSG6A5SZ7EAQAF2Y6G0GN89U87W","1",5,9,1,"5","<p style=""font-size:100px""><b>p</b></p><p style=""position: absolute; top: 30px; right: 30px; text-align:right; font-size:50px"""">N = 1</p>","p",0,69,698.800000190735,0,"agree",15,15,16,18,15,"32","Male","they were clear to me","Slight Agreement","Neither Agreement nor Disagreement","Moderate Disagreement","Neither Agreement nor Disagreement","Slight Agreement","Moderate Agreement","Moderate Disagreement","Neither Agreement nor Disagreement","Slight Disagreement","Slight Agreement","Neither Agreement nor Disagreement","Slight Disagreement","Slight Agreement","Neither Agreement nor Disagreement","Slight Disagreement","Slight Disagreement","Moderate Disagreement","Moderate Disagreement"
"94","A2WYCY1FMQOD5F:31QNSG6A5SZ7EAQAF2Y6G0GN89U87W","1",5,10,1,"5","<p style=""font-size:100px""><b>t</b></p><p style=""position: absolute; top: 30px; right: 30px; text-align:right; font-size:50px"""">N = 1</p>","t",0,73,611.200000286102,1,"agree",15,15,16,18,15,"32","Male","they were clear to me","Slight Agreement","Neither Agreement nor Disagreement","Moderate Disagreement","Neither Agreement nor Disagreement","Slight Agreement","Moderate Agreement","Moderate Disagreement","Neither Agreement nor Disagreement","Slight Disagreement","Slight Agreement","Neither Agreement nor Disagreement","Slight Disagreement","Slight Agreement","Neither Agreement nor Disagreement","Slight Disagreement","Slight Disagreement","Moderate Disagreement","Moderate Disagreement"
"95","A2WYCY1FMQOD5F:31QNSG6A5SZ7EAQAF2Y6G0GN89U87W","1",5,11,1,"5","<p style=""font-size:100px""><b>B</b></p><p style=""position: absolute; top: 30px; right: 30px; text-align:right; font-size:50px"""">N = 1</p>","B",0,73,653.299999713898,1,"agree",15,15,16,18,15,"32","Male","they were clear to me","Slight Agreement","Neither Agreement nor Disagreement","Moderate Disagreement","Neither Agreement nor Disagreement","Slight Agreement","Moderate Agreement","Moderate Disagreement","Neither Agreement nor Disagreement","Slight Disagreement","Slight Agreement","Neither Agreement nor Disagreement","Slight Disagreement","Slight Agreement","Neither Agreement nor Disagreement","Slight Disagreement","Slight Disagreement","Moderate Disagreement","Moderate Disagreement"
"96","A2WYCY1FMQOD5F:31QNSG6A5SZ7EAQAF2Y6G0GN89U87W","1",5,12,1,"5","<p style=""font-size:100px""><b>t</b></p><p style=""position: absolute; top: 30px; right: 30px; text-align:right; font-size:50px"""">N = 1</p>","t",0,73,821.89999961853,1,"agree",15,15,16,18,15,"32","Male","they were clear to me","Slight Agreement","Neither Agreement nor Disagreement","Moderate Disagreement","Neither Agreement nor Disagreement","Slight Agreement","Moderate Agreement","Moderate Disagreement","Neither Agreement nor Disagreement","Slight Disagreement","Slight Agreement","Neither Agreement nor Disagreement","Slight Disagreement","Slight Agreement","Neither Agreement nor Disagreement","Slight Disagreement","Slight Disagreement","Moderate Disagreement","Moderate Disagreement"
"97","A2WYCY1FMQOD5F:31QNSG6A5SZ7EAQAF2Y6G0GN89U87W","1",6,1,1,"50","<p style=""font-size:100px""><b>b</b></p><p style=""position: absolute; top: 30px; right: 30px; text-align:right; font-size:50px"""">N = 1</p>","b",0,73,403.39999961853,1,"agree",14,17,16,15,14,"32","Male","they were clear to me","Slight Agreement","Neither Agreement nor Disagreement","Moderate Disagreement","Neither Agreement nor Disagreement","Slight Agreement","Moderate Agreement","Moderate Disagreement","Neither Agreement nor Disagreement","Slight Disagreement","Slight Agreement","Neither Agreement nor Disagreement","Slight Disagreement","Slight Agreement","Neither Agreement nor Disagreement","Slight Disagreement","Slight Disagreement","Moderate Disagreement","Moderate Disagreement"
"98","A2WYCY1FMQOD5F:31QNSG6A5SZ7EAQAF2Y6G0GN89U87W","1",6,2,1,"50","<p style=""font-size:100px""><b>P</b></p><p style=""position: absolute; top: 30px; right: 30px; text-align:right; font-size:50px"""">N = 1</p>","P",0,73,869.099999904633,1,"agree",14,17,16,15,14,"32","Male","they were clear to me","Slight Agreement","Neither Agreement nor Disagreement","Moderate Disagreement","Neither Agreement nor Disagreement","Slight Agreement","Moderate Agreement","Moderate Disagreement","Neither Agreement nor Disagreement","Slight Disagreement","Slight Agreement","Neither Agreement nor Disagreement","Slight Disagreement","Slight Agreement","Neither Agreement nor Disagreement","Slight Disagreement","Slight Disagreement","Moderate Disagreement","Moderate Disagreement"
"99","A2WYCY1FMQOD5F:31QNSG6A5SZ7EAQAF2Y6G0GN89U87W","1",6,3,1,"50","<p style=""font-size:100px""><b>T</b></p><p style=""position: absolute; top: 30px; right: 30px; text-align:right; font-size:50px"""">N = 1</p>","T",0,73,500.89999961853,1,"agree",14,17,16,15,14,"32","Male","they were clear to me","Slight Agreement","Neither Agreement nor Disagreement","Moderate Disagreement","Neither Agreement nor Disagreement","Slight Agreement","Moderate Agreement","Moderate Disagreement","Neither Agreement nor Disagreement","Slight Disagreement","Slight Agreement","Neither Agreement nor Disagreement","Slight Disagreement","Slight Agreement","Neither Agreement nor Disagreement","Slight Disagreement","Slight Disagreement","Moderate Disagreement","Moderate Disagreement"
"100","A2WYCY1FMQOD5F:31QNSG6A5SZ7EAQAF2Y6G0GN89U87W","1",6,4,1,"50","<p style=""font-size:100px""><b>d</b></p><p style=""position: absolute; top: 30px; right: 30px; text-align:right; font-size:50px"""">N = 1</p>","d",0,73,495,1,"agree",14,17,16,15,14,"32","Male","they were clear to me","Slight Agreement","Neither Agreement nor Disagreement","Moderate Disagreement","Neither Agreement nor Disagreement","Slight Agreement","Moderate Agreement","Moderate Disagreement","Neither Agreement nor Disagreement","Slight Disagreement","Slight Agreement","Neither Agreement nor Disagreement","Slight Disagreement","Slight Agreement","Neither Agreement nor Disagreement","Slight Disagreement","Slight Disagreement","Moderate Disagreement","Moderate Disagreement"
"101","A2WYCY1FMQOD5F:31QNSG6A5SZ7EAQAF2Y6G0GN89U87W","1",6,5,1,"50","<p style=""font-size:100px""><b>B</b></p><p style=""position: absolute; top: 30px; right: 30px; text-align:right; font-size:50px"""">N = 1</p>","B",0,73,424.60000038147,1,"agree",14,17,16,15,14,"32","Male","they were clear to me","Slight Agreement","Neither Agreement nor Disagreement","Moderate Disagreement","Neither Agreement nor Disagreement","Slight Agreement","Moderate Agreement","Moderate Disagreement","Neither Agreement nor Disagreement","Slight Disagreement","Slight Agreement","Neither Agreement nor Disagreement","Slight Disagreement","Slight Agreement","Neither Agreement nor Disagreement","Slight Disagreement","Slight Disagreement","Moderate Disagreement","Moderate Disagreement"
"102","A2WYCY1FMQOD5F:31QNSG6A5SZ7EAQAF2Y6G0GN89U87W","1",6,6,1,"50","<p style=""font-size:100px""><b>v</b></p><p style=""position: absolute; top: 30px; right: 30px; text-align:right; font-size:50px"""">N = 1</p>","v",0,73,537.89999961853,1,"agree",14,17,16,15,14,"32","Male","they were clear to me","Slight Agreement","Neither Agreement nor Disagreement","Moderate Disagreement","Neither Agreement nor Disagreement","Slight Agreement","Moderate Agreement","Moderate Disagreement","Neither Agreement nor Disagreement","Slight Disagreement","Slight Agreement","Neither Agreement nor Disagreement","Slight Disagreement","Slight Agreement","Neither Agreement nor Disagreement","Slight Disagreement","Slight Disagreement","Moderate Disagreement","Moderate Disagreement"
"103","A2WYCY1FMQOD5F:31QNSG6A5SZ7EAQAF2Y6G0GN89U87W","1",6,7,1,"50","<p style=""font-size:100px""><b>v</b></p><p style=""position: absolute; top: 30px; right: 30px; text-align:right; font-size:50px"""">N = 1</p>","v",0,69,435.599999904633,0,"agree",14,17,16,15,14,"32","Male","they were clear to me","Slight Agreement","Neither Agreement nor Disagreement","Moderate Disagreement","Neither Agreement nor Disagreement","Slight Agreement","Moderate Agreement","Moderate Disagreement","Neither Agreement nor Disagreement","Slight Disagreement","Slight Agreement","Neither Agreement nor Disagreement","Slight Disagreement","Slight Agreement","Neither Agreement nor Disagreement","Slight Disagreement","Slight Disagreement","Moderate Disagreement","Moderate Disagreement"
"104","A2WYCY1FMQOD5F:31QNSG6A5SZ7EAQAF2Y6G0GN89U87W","1",6,8,1,"50","<p style=""font-size:100px""><b>d</b></p><p style=""position: absolute; top: 30px; right: 30px; text-align:right; font-size:50px"""">N = 1</p>","d",0,73,356.800000190735,1,"agree",14,17,16,15,14,"32","Male","they were clear to me","Slight Agreement","Neither Agreement nor Disagreement","Moderate Disagreement","Neither Agreement nor Disagreement","Slight Agreement","Moderate Agreement","Moderate Disagreement","Neither Agreement nor Disagreement","Slight Disagreement","Slight Agreement","Neither Agreement nor Disagreement","Slight Disagreement","Slight Agreement","Neither Agreement nor Disagreement","Slight Disagreement","Slight Disagreement","Moderate Disagreement","Moderate Disagreement"
"105","A2WYCY1FMQOD5F:31QNSG6A5SZ7EAQAF2Y6G0GN89U87W","1",6,9,1,"50","<p style=""font-size:100px""><b>v</b></p><p style=""position: absolute; top: 30px; right: 30px; text-align:right; font-size:50px"""">N = 1</p>","v",0,73,502.800000190735,1,"agree",14,17,16,15,14,"32","Male","they were clear to me","Slight Agreement","Neither Agreement nor Disagreement","Moderate Disagreement","Neither Agreement nor Disagreement","Slight Agreement","Moderate Agreement","Moderate Disagreement","Neither Agreement nor Disagreement","Slight Disagreement","Slight Agreement","Neither Agreement nor Disagreement","Slight Disagreement","Slight Agreement","Neither Agreement nor Disagreement","Slight Disagreement","Slight Disagreement","Moderate Disagreement","Moderate Disagreement"
"106","A2WYCY1FMQOD5F:31QNSG6A5SZ7EAQAF2Y6G0GN89U87W","1",6,10,1,"50","<p style=""font-size:100px""><b>v</b></p><p style=""position: absolute; top: 30px; right: 30px; text-align:right; font-size:50px"""">N = 1</p>","v",0,69,489.39999961853,0,"agree",14,17,16,15,14,"32","Male","they were clear to me","Slight Agreement","Neither Agreement nor Disagreement","Moderate Disagreement","Neither Agreement nor Disagreement","Slight Agreement","Moderate Agreement","Moderate Disagreement","Neither Agreement nor Disagreement","Slight Disagreement","Slight Agreement","Neither Agreement nor Disagreement","Slight Disagreement","Slight Agreement","Neither Agreement nor Disagreement","Slight Disagreement","Slight Disagreement","Moderate Disagreement","Moderate Disagreement"
"107","A2WYCY1FMQOD5F:31QNSG6A5SZ7EAQAF2Y6G0GN89U87W","1",6,11,1,"50","<p style=""font-size:100px""><b>v</b></p><p style=""position: absolute; top: 30px; right: 30px; text-align:right; font-size:50px"""">N = 1</p>","v",0,69,554.400000095367,0,"agree",14,17,16,15,14,"32","Male","they were clear to me","Slight Agreement","Neither Agreement nor Disagreement","Moderate Disagreement","Neither Agreement nor Disagreement","Slight Agreement","Moderate Agreement","Moderate Disagreement","Neither Agreement nor Disagreement","Slight Disagreement","Slight Agreement","Neither Agreement nor Disagreement","Slight Disagreement","Slight Agreement","Neither Agreement nor Disagreement","Slight Disagreement","Slight Disagreement","Moderate Disagreement","Moderate Disagreement"
"108","A2WYCY1FMQOD5F:31QNSG6A5SZ7EAQAF2Y6G0GN89U87W","1",6,12,1,"50","<p style=""font-size:100px""><b>v</b></p><p style=""position: absolute; top: 30px; right: 30px; text-align:right; font-size:50px"""">N = 1</p>","v",0,69,539.900000095367,0,"agree",14,17,16,15,14,"32","Male","they were clear to me","Slight Agreement","Neither Agreement nor Disagreement","Moderate Disagreement","Neither Agreement nor Disagreement","Slight Agreement","Moderate Agreement","Moderate Disagreement","Neither Agreement nor Disagreement","Slight Disagreement","Slight Agreement","Neither Agreement nor Disagreement","Slight Disagreement","Slight Agreement","Neither Agreement nor Disagreement","Slight Disagreement","Slight Disagreement","Moderate Disagreement","Moderate Disagreement"
"109","A2WYCY1FMQOD5F:31QNSG6A5SZ7EAQAF2Y6G0GN89U87W","2",7,1,1,"5","<p style=""font-size:100px""><b>T</b></p><p style=""position: absolute; top: 30px; right: 30px; text-align:right; font-size:50px"""">N = 1</p>","T",0,73,394.799999713898,1,"agree",16,14,14,16,14,"32","Male","they were clear to me","Slight Agreement","Neither Agreement nor Disagreement","Moderate Disagreement","Neither Agreement nor Disagreement","Slight Agreement","Moderate Agreement","Moderate Disagreement","Neither Agreement nor Disagreement","Slight Disagreement","Slight Agreement","Neither Agreement nor Disagreement","Slight Disagreement","Slight Agreement","Neither Agreement nor Disagreement","Slight Disagreement","Slight Disagreement","Moderate Disagreement","Moderate Disagreement"
"110","A2WYCY1FMQOD5F:31QNSG6A5SZ7EAQAF2Y6G0GN89U87W","2",7,2,1,"5","<p style=""font-size:100px""><b>g</b></p><p style=""position: absolute; top: 30px; right: 30px; text-align:right; font-size:50px"""">N = 1</p>","g",0,73,428.099999904633,1,"agree",16,14,14,16,14,"32","Male","they were clear to me","Slight Agreement","Neither Agreement nor Disagreement","Moderate Disagreement","Neither Agreement nor Disagreement","Slight Agreement","Moderate Agreement","Moderate Disagreement","Neither Agreement nor Disagreement","Slight Disagreement","Slight Agreement","Neither Agreement nor Disagreement","Slight Disagreement","Slight Agreement","Neither Agreement nor Disagreement","Slight Disagreement","Slight Disagreement","Moderate Disagreement","Moderate Disagreement"
"111","A2WYCY1FMQOD5F:31QNSG6A5SZ7EAQAF2Y6G0GN89U87W","2",7,3,1,"5","<p style=""font-size:100px""><b>g</b></p><p style=""position: absolute; top: 30px; right: 30px; text-align:right; font-size:50px"""">N = 1</p>","g",0,69,457,0,"agree",16,14,14,16,14,"32","Male","they were clear to me","Slight Agreement","Neither Agreement nor Disagreement","Moderate Disagreement","Neither Agreement nor Disagreement","Slight Agreement","Moderate Agreement","Moderate Disagreement","Neither Agreement nor Disagreement","Slight Disagreement","Slight Agreement","Neither Agreement nor Disagreement","Slight Disagreement","Slight Agreement","Neither Agreement nor Disagreement","Slight Disagreement","Slight Disagreement","Moderate Disagreement","Moderate Disagreement"
"112","A2WYCY1FMQOD5F:31QNSG6A5SZ7EAQAF2Y6G0GN89U87W","2",7,4,1,"5","<p style=""font-size:100px""><b>g</b></p><p style=""position: absolute; top: 30px; right: 30px; text-align:right; font-size:50px"""">N = 1</p>","g",0,69,666.200000286102,0,"agree",16,14,14,16,14,"32","Male","they were clear to me","Slight Agreement","Neither Agreement nor Disagreement","Moderate Disagreement","Neither Agreement nor Disagreement","Slight Agreement","Moderate Agreement","Moderate Disagreement","Neither Agreement nor Disagreement","Slight Disagreement","Slight Agreement","Neither Agreement nor Disagreement","Slight Disagreement","Slight Agreement","Neither Agreement nor Disagreement","Slight Disagreement","Slight Disagreement","Moderate Disagreement","Moderate Disagreement"
"113","A2WYCY1FMQOD5F:31QNSG6A5SZ7EAQAF2Y6G0GN89U87W","2",7,5,1,"5","<p style=""font-size:100px""><b>t</b></p><p style=""position: absolute; top: 30px; right: 30px; text-align:right; font-size:50px"""">N = 1</p>","t",0,73,659.400000095367,1,"agree",16,14,14,16,14,"32","Male","they were clear to me","Slight Agreement","Neither Agreement nor Disagreement","Moderate Disagreement","Neither Agreement nor Disagreement","Slight Agreement","Moderate Agreement","Moderate Disagreement","Neither Agreement nor Disagreement","Slight Disagreement","Slight Agreement","Neither Agreement nor Disagreement","Slight Disagreement","Slight Agreement","Neither Agreement nor Disagreement","Slight Disagreement","Slight Disagreement","Moderate Disagreement","Moderate Disagreement"
"114","A2WYCY1FMQOD5F:31QNSG6A5SZ7EAQAF2Y6G0GN89U87W","2",7,6,1,"5","<p style=""font-size:100px""><b>G</b></p><p style=""position: absolute; top: 30px; right: 30px; text-align:right; font-size:50px"""">N = 1</p>","G",0,73,475.199999809265,1,"agree",16,14,14,16,14,"32","Male","they were clear to me","Slight Agreement","Neither Agreement nor Disagreement","Moderate Disagreement","Neither Agreement nor Disagreement","Slight Agreement","Moderate Agreement","Moderate Disagreement","Neither Agreement nor Disagreement","Slight Disagreement","Slight Agreement","Neither Agreement nor Disagreement","Slight Disagreement","Slight Agreement","Neither Agreement nor Disagreement","Slight Disagreement","Slight Disagreement","Moderate Disagreement","Moderate Disagreement"
"115","A2WYCY1FMQOD5F:31QNSG6A5SZ7EAQAF2Y6G0GN89U87W","2",7,7,1,"5","<p style=""font-size:100px""><b>G</b></p><p style=""position: absolute; top: 30px; right: 30px; text-align:right; font-size:50px"""">N = 1</p>","G",0,69,509.39999961853,0,"agree",16,14,14,16,14,"32","Male","they were clear to me","Slight Agreement","Neither Agreement nor Disagreement","Moderate Disagreement","Neither Agreement nor Disagreement","Slight Agreement","Moderate Agreement","Moderate Disagreement","Neither Agreement nor Disagreement","Slight Disagreement","Slight Agreement","Neither Agreement nor Disagreement","Slight Disagreement","Slight Agreement","Neither Agreement nor Disagreement","Slight Disagreement","Slight Disagreement","Moderate Disagreement","Moderate Disagreement"
"116","A2WYCY1FMQOD5F:31QNSG6A5SZ7EAQAF2Y6G0GN89U87W","2",7,8,1,"5","<p style=""font-size:100px""><b>V</b></p><p style=""position: absolute; top: 30px; right: 30px; text-align:right; font-size:50px"""">N = 1</p>","V",0,73,622.60000038147,1,"agree",16,14,14,16,14,"32","Male","they were clear to me","Slight Agreement","Neither Agreement nor Disagreement","Moderate Disagreement","Neither Agreement nor Disagreement","Slight Agreement","Moderate Agreement","Moderate Disagreement","Neither Agreement nor Disagreement","Slight Disagreement","Slight Agreement","Neither Agreement nor Disagreement","Slight Disagreement","Slight Agreement","Neither Agreement nor Disagreement","Slight Disagreement","Slight Disagreement","Moderate Disagreement","Moderate Disagreement"
"117","A2WYCY1FMQOD5F:31QNSG6A5SZ7EAQAF2Y6G0GN89U87W","2",7,9,1,"5","<p style=""font-size:100px""><b>P</b></p><p style=""position: absolute; top: 30px; right: 30px; text-align:right; font-size:50px"""">N = 1</p>","P",0,73,543,1,"agree",16,14,14,16,14,"32","Male","they were clear to me","Slight Agreement","Neither Agreement nor Disagreement","Moderate Disagreement","Neither Agreement nor Disagreement","Slight Agreement","Moderate Agreement","Moderate Disagreement","Neither Agreement nor Disagreement","Slight Disagreement","Slight Agreement","Neither Agreement nor Disagreement","Slight Disagreement","Slight Agreement","Neither Agreement nor Disagreement","Slight Disagreement","Slight Disagreement","Moderate Disagreement","Moderate Disagreement"
"118","A2WYCY1FMQOD5F:31QNSG6A5SZ7EAQAF2Y6G0GN89U87W","2",7,10,1,"5","<p style=""font-size:100px""><b>T</b></p><p style=""position: absolute; top: 30px; right: 30px; text-align:right; font-size:50px"""">N = 1</p>","T",0,73,477.39999961853,1,"agree",16,14,14,16,14,"32","Male","they were clear to me","Slight Agreement","Neither Agreement nor Disagreement","Moderate Disagreement","Neither Agreement nor Disagreement","Slight Agreement","Moderate Agreement","Moderate Disagreement","Neither Agreement nor Disagreement","Slight Disagreement","Slight Agreement","Neither Agreement nor Disagreement","Slight Disagreement","Slight Agreement","Neither Agreement nor Disagreement","Slight Disagreement","Slight Disagreement","Moderate Disagreement","Moderate Disagreement"
"119","A2WYCY1FMQOD5F:31QNSG6A5SZ7EAQAF2Y6G0GN89U87W","2",7,11,1,"5","<p style=""font-size:100px""><b>T</b></p><p style=""position: absolute; top: 30px; right: 30px; text-align:right; font-size:50px"""">N = 1</p>","T",0,69,598.299999713898,0,"agree",16,14,14,16,14,"32","Male","they were clear to me","Slight Agreement","Neither Agreement nor Disagreement","Moderate Disagreement","Neither Agreement nor Disagreement","Slight Agreement","Moderate Agreement","Moderate Disagreement","Neither Agreement nor Disagreement","Slight Disagreement","Slight Agreement","Neither Agreement nor Disagreement","Slight Disagreement","Slight Agreement","Neither Agreement nor Disagreement","Slight Disagreement","Slight Disagreement","Moderate Disagreement","Moderate Disagreement"
"120","A2WYCY1FMQOD5F:31QNSG6A5SZ7EAQAF2Y6G0GN89U87W","2",7,12,1,"5","<p style=""font-size:100px""><b>B</b></p><p style=""position: absolute; top: 30px; right: 30px; text-align:right; font-size:50px"""">N = 1</p>","B",0,73,608.200000286102,1,"agree",16,14,14,16,14,"32","Male","they were clear to me","Slight Agreement","Neither Agreement nor Disagreement","Moderate Disagreement","Neither Agreement nor Disagreement","Slight Agreement","Moderate Agreement","Moderate Disagreement","Neither Agreement nor Disagreement","Slight Disagreement","Slight Agreement","Neither Agreement nor Disagreement","Slight Disagreement","Slight Agreement","Neither Agreement nor Disagreement","Slight Disagreement","Slight Disagreement","Moderate Disagreement","Moderate Disagreement"
"121","A2WYCY1FMQOD5F:31QNSG6A5SZ7EAQAF2Y6G0GN89U87W","2",8,1,2,"50","<p style=""font-size:100px""><b>v</b></p><p style=""position: absolute; top: 30px; right: 30px; text-align:right; font-size:50px"""">N = 2</p>","v",0,73,354.099999904633,1,"agree",15,13,16,14,16,"32","Male","they were clear to me","Slight Agreement","Neither Agreement nor Disagreement","Moderate Disagreement","Neither Agreement nor Disagreement","Slight Agreement","Moderate Agreement","Moderate Disagreement","Neither Agreement nor Disagreement","Slight Disagreement","Slight Agreement","Neither Agreement nor Disagreement","Slight Disagreement","Slight Agreement","Neither Agreement nor Disagreement","Slight Disagreement","Slight Disagreement","Moderate Disagreement","Moderate Disagreement"
"122","A2WYCY1FMQOD5F:31QNSG6A5SZ7EAQAF2Y6G0GN89U87W","2",8,2,2,"50","<p style=""font-size:100px""><b>b</b></p><p style=""position: absolute; top: 30px; right: 30px; text-align:right; font-size:50px"""">N = 2</p>","b",0,73,411.89999961853,1,"agree",15,13,16,14,16,"32","Male","they were clear to me","Slight Agreement","Neither Agreement nor Disagreement","Moderate Disagreement","Neither Agreement nor Disagreement","Slight Agreement","Moderate Agreement","Moderate Disagreement","Neither Agreement nor Disagreement","Slight Disagreement","Slight Agreement","Neither Agreement nor Disagreement","Slight Disagreement","Slight Agreement","Neither Agreement nor Disagreement","Slight Disagreement","Slight Disagreement","Moderate Disagreement","Moderate Disagreement"
"123","A2WYCY1FMQOD5F:31QNSG6A5SZ7EAQAF2Y6G0GN89U87W","2",8,3,2,"50","<p style=""font-size:100px""><b>t</b></p><p style=""position: absolute; top: 30px; right: 30px; text-align:right; font-size:50px"""">N = 2</p>","t",0,73,556.699999809265,1,"agree",15,13,16,14,16,"32","Male","they were clear to me","Slight Agreement","Neither Agreement nor Disagreement","Moderate Disagreement","Neither Agreement nor Disagreement","Slight Agreement","Moderate Agreement","Moderate Disagreement","Neither Agreement nor Disagreement","Slight Disagreement","Slight Agreement","Neither Agreement nor Disagreement","Slight Disagreement","Slight Agreement","Neither Agreement nor Disagreement","Slight Disagreement","Slight Disagreement","Moderate Disagreement","Moderate Disagreement"
"124","A2WYCY1FMQOD5F:31QNSG6A5SZ7EAQAF2Y6G0GN89U87W","2",8,4,2,"50","<p style=""font-size:100px""><b>b</b></p><p style=""position: absolute; top: 30px; right: 30px; text-align:right; font-size:50px"""">N = 2</p>","b",0,69,805.299999713898,0,"agree",15,13,16,14,16,"32","Male","they were clear to me","Slight Agreement","Neither Agreement nor Disagreement","Moderate Disagreement","Neither Agreement nor Disagreement","Slight Agreement","Moderate Agreement","Moderate Disagreement","Neither Agreement nor Disagreement","Slight Disagreement","Slight Agreement","Neither Agreement nor Disagreement","Slight Disagreement","Slight Agreement","Neither Agreement nor Disagreement","Slight Disagreement","Slight Disagreement","Moderate Disagreement","Moderate Disagreement"
"125","A2WYCY1FMQOD5F:31QNSG6A5SZ7EAQAF2Y6G0GN89U87W","2",8,5,2,"50","<p style=""font-size:100px""><b>d</b></p><p style=""position: absolute; top: 30px; right: 30px; text-align:right; font-size:50px"""">N = 2</p>","d",0,73,702.799999713898,1,"agree",15,13,16,14,16,"32","Male","they were clear to me","Slight Agreement","Neither Agreement nor Disagreement","Moderate Disagreement","Neither Agreement nor Disagreement","Slight Agreement","Moderate Agreement","Moderate Disagreement","Neither Agreement nor Disagreement","Slight Disagreement","Slight Agreement","Neither Agreement nor Disagreement","Slight Disagreement","Slight Agreement","Neither Agreement nor Disagreement","Slight Disagreement","Slight Disagreement","Moderate Disagreement","Moderate Disagreement"
"126","A2WYCY1FMQOD5F:31QNSG6A5SZ7EAQAF2Y6G0GN89U87W","2",8,6,2,"50","<p style=""font-size:100px""><b>d</b></p><p style=""position: absolute; top: 30px; right: 30px; text-align:right; font-size:50px"""">N = 2</p>","d",0,69,607.299999713898,0,"agree",15,13,16,14,16,"32","Male","they were clear to me","Slight Agreement","Neither Agreement nor Disagreement","Moderate Disagreement","Neither Agreement nor Disagreement","Slight Agreement","Moderate Agreement","Moderate Disagreement","Neither Agreement nor Disagreement","Slight Disagreement","Slight Agreement","Neither Agreement nor Disagreement","Slight Disagreement","Slight Agreement","Neither Agreement nor Disagreement","Slight Disagreement","Slight Disagreement","Moderate Disagreement","Moderate Disagreement"
"127","A2WYCY1FMQOD5F:31QNSG6A5SZ7EAQAF2Y6G0GN89U87W","2",8,7,2,"50","<p style=""font-size:100px""><b>p</b></p><p style=""position: absolute; top: 30px; right: 30px; text-align:right; font-size:50px"""">N = 2</p>","p",0,73,665.099999904633,1,"agree",15,13,16,14,16,"32","Male","they were clear to me","Slight Agreement","Neither Agreement nor Disagreement","Moderate Disagreement","Neither Agreement nor Disagreement","Slight Agreement","Moderate Agreement","Moderate Disagreement","Neither Agreement nor Disagreement","Slight Disagreement","Slight Agreement","Neither Agreement nor Disagreement","Slight Disagreement","Slight Agreement","Neither Agreement nor Disagreement","Slight Disagreement","Slight Disagreement","Moderate Disagreement","Moderate Disagreement"
"128","A2WYCY1FMQOD5F:31QNSG6A5SZ7EAQAF2Y6G0GN89U87W","2",8,8,2,"50","<p style=""font-size:100px""><b>T</b></p><p style=""position: absolute; top: 30px; right: 30px; text-align:right; font-size:50px"""">N = 2</p>","T",0,73,538.800000190735,1,"agree",15,13,16,14,16,"32","Male","they were clear to me","Slight Agreement","Neither Agreement nor Disagreement","Moderate Disagreement","Neither Agreement nor Disagreement","Slight Agreement","Moderate Agreement","Moderate Disagreement","Neither Agreement nor Disagreement","Slight Disagreement","Slight Agreement","Neither Agreement nor Disagreement","Slight Disagreement","Slight Agreement","Neither Agreement nor Disagreement","Slight Disagreement","Slight Disagreement","Moderate Disagreement","Moderate Disagreement"
"129","A2WYCY1FMQOD5F:31QNSG6A5SZ7EAQAF2Y6G0GN89U87W","2",8,9,2,"50","<p style=""font-size:100px""><b>t</b></p><p style=""position: absolute; top: 30px; right: 30px; text-align:right; font-size:50px"""">N = 2</p>","t",0,69,531.39999961853,0,"agree",15,13,16,14,16,"32","Male","they were clear to me","Slight Agreement","Neither Agreement nor Disagreement","Moderate Disagreement","Neither Agreement nor Disagreement","Slight Agreement","Moderate Agreement","Moderate Disagreement","Neither Agreement nor Disagreement","Slight Disagreement","Slight Agreement","Neither Agreement nor Disagreement","Slight Disagreement","Slight Agreement","Neither Agreement nor Disagreement","Slight Disagreement","Slight Disagreement","Moderate Disagreement","Moderate Disagreement"
"130","A2WYCY1FMQOD5F:31QNSG6A5SZ7EAQAF2Y6G0GN89U87W","2",8,10,2,"50","<p style=""font-size:100px""><b>T</b></p><p style=""position: absolute; top: 30px; right: 30px; text-align:right; font-size:50px"""">N = 2</p>","T",0,73,429,1,"agree",15,13,16,14,16,"32","Male","they were clear to me","Slight Agreement","Neither Agreement nor Disagreement","Moderate Disagreement","Neither Agreement nor Disagreement","Slight Agreement","Moderate Agreement","Moderate Disagreement","Neither Agreement nor Disagreement","Slight Disagreement","Slight Agreement","Neither Agreement nor Disagreement","Slight Disagreement","Slight Agreement","Neither Agreement nor Disagreement","Slight Disagreement","Slight Disagreement","Moderate Disagreement","Moderate Disagreement"
