"","subject","run","block","trial","N","reward","stimulus","cue","isTarget","key_press","rt","acc","debrief","performance","frustration","demand","temporal","effort","age","gender","comments","nfc1","nfc2","nfc3","nfc4","nfc5","nfc6","nfc7","nfc8","nfc9","nfc10","nfc11","nfc12","nfc13","nfc14","nfc15","nfc16","nfc17","nfc18"
"1","A2AMVY0LYCBZFL:3WS1NTTKEZI2BE0D2HJ3BDNMNZMF05","practice",1,1,1,"NA","<p style=""font-size:100px""><b>p</b></p><p style=""position: absolute; top: 30px; right: 30px; text-align:right; font-size:50px"""">N = 1</p>","p",0,69,4813,0,"agree",20,18,19,18,20,"32","Male","Is awesome experiment","Very Strong Agreement","Very Strong Agreement","Very Strong Agreement","Very Strong Agreement","Very Strong Agreement","Very Strong Agreement","Very Strong Agreement","Strong Agreement","Very Strong Agreement","Very Strong Agreement","Very Strong Agreement","Very Strong Agreement","Very Strong Agreement","Strong Agreement","Very Strong Agreement","Strong Agreement","Very Strong Agreement","Very Strong Agreement"
"2","A2AMVY0LYCBZFL:3WS1NTTKEZI2BE0D2HJ3BDNMNZMF05","practice",1,2,1,"NA","<p style=""font-size:100px""><b>p</b></p><p style=""position: absolute; top: 30px; right: 30px; text-align:right; font-size:50px"""">N = 1</p>","p",1,73,1327,0,"agree",20,18,19,18,20,"32","Male","Is awesome experiment","Very Strong Agreement","Very Strong Agreement","Very Strong Agreement","Very Strong Agreement","Very Strong Agreement","Very Strong Agreement","Very Strong Agreement","Strong Agreement","Very Strong Agreement","Very Strong Agreement","Very Strong Agreement","Very Strong Agreement","Very Strong Agreement","Strong Agreement","Very Strong Agreement","Strong Agreement","Very Strong Agreement","Very Strong Agreement"
"3","A2AMVY0LYCBZFL:3WS1NTTKEZI2BE0D2HJ3BDNMNZMF05","practice",1,3,1,"NA","<p style=""font-size:100px""><b>D</b></p><p style=""position: absolute; top: 30px; right: 30px; text-align:right; font-size:50px"""">N = 1</p>","D",0,73,1000,1,"agree",20,18,19,18,20,"32","Male","Is awesome experiment","Very Strong Agreement","Very Strong Agreement","Very Strong Agreement","Very Strong Agreement","Very Strong Agreement","Very Strong Agreement","Very Strong Agreement","Strong Agreement","Very Strong Agreement","Very Strong Agreement","Very Strong Agreement","Very Strong Agreement","Very Strong Agreement","Strong Agreement","Very Strong Agreement","Strong Agreement","Very Strong Agreement","Very Strong Agreement"
"4","A2AMVY0LYCBZFL:3WS1NTTKEZI2BE0D2HJ3BDNMNZMF05","practice",1,4,1,"NA","<p style=""font-size:100px""><b>v</b></p><p style=""position: absolute; top: 30px; right: 30px; text-align:right; font-size:50px"""">N = 1</p>","v",0,73,846,1,"agree",20,18,19,18,20,"32","Male","Is awesome experiment","Very Strong Agreement","Very Strong Agreement","Very Strong Agreement","Very Strong Agreement","Very Strong Agreement","Very Strong Agreement","Very Strong Agreement","Strong Agreement","Very Strong Agreement","Very Strong Agreement","Very Strong Agreement","Very Strong Agreement","Very Strong Agreement","Strong Agreement","Very Strong Agreement","Strong Agreement","Very Strong Agreement","Very Strong Agreement"
"5","A2AMVY0LYCBZFL:3WS1NTTKEZI2BE0D2HJ3BDNMNZMF05","practice",1,5,1,"NA","<p style=""font-size:100px""><b>p</b></p><p style=""position: absolute; top: 30px; right: 30px; text-align:right; font-size:50px"""">N = 1</p>","p",0,69,1351,0,"agree",20,18,19,18,20,"32","Male","Is awesome experiment","Very Strong Agreement","Very Strong Agreement","Very Strong Agreement","Very Strong Agreement","Very Strong Agreement","Very Strong Agreement","Very Strong Agreement","Strong Agreement","Very Strong Agreement","Very Strong Agreement","Very Strong Agreement","Very Strong Agreement","Very Strong Agreement","Strong Agreement","Very Strong Agreement","Strong Agreement","Very Strong Agreement","Very Strong Agreement"
"6","A2AMVY0LYCBZFL:3WS1NTTKEZI2BE0D2HJ3BDNMNZMF05","practice",1,6,1,"NA","<p style=""font-size:100px""><b>v</b></p><p style=""position: absolute; top: 30px; right: 30px; text-align:right; font-size:50px"""">N = 1</p>","v",0,73,766,1,"agree",20,18,19,18,20,"32","Male","Is awesome experiment","Very Strong Agreement","Very Strong Agreement","Very Strong Agreement","Very Strong Agreement","Very Strong Agreement","Very Strong Agreement","Very Strong Agreement","Strong Agreement","Very Strong Agreement","Very Strong Agreement","Very Strong Agreement","Very Strong Agreement","Very Strong Agreement","Strong Agreement","Very Strong Agreement","Strong Agreement","Very Strong Agreement","Very Strong Agreement"
"7","A2AMVY0LYCBZFL:3WS1NTTKEZI2BE0D2HJ3BDNMNZMF05","practice",1,7,1,"NA","<p style=""font-size:100px""><b>v</b></p><p style=""position: absolute; top: 30px; right: 30px; text-align:right; font-size:50px"""">N = 1</p>","v",1,73,583,0,"agree",20,18,19,18,20,"32","Male","Is awesome experiment","Very Strong Agreement","Very Strong Agreement","Very Strong Agreement","Very Strong Agreement","Very Strong Agreement","Very Strong Agreement","Very Strong Agreement","Strong Agreement","Very Strong Agreement","Very Strong Agreement","Very Strong Agreement","Very Strong Agreement","Very Strong Agreement","Strong Agreement","Very Strong Agreement","Strong Agreement","Very Strong Agreement","Very Strong Agreement"
"8","A2AMVY0LYCBZFL:3WS1NTTKEZI2BE0D2HJ3BDNMNZMF05","practice",1,8,1,"NA","<p style=""font-size:100px""><b>v</b></p><p style=""position: absolute; top: 30px; right: 30px; text-align:right; font-size:50px"""">N = 1</p>","v",1,69,875,1,"agree",20,18,19,18,20,"32","Male","Is awesome experiment","Very Strong Agreement","Very Strong Agreement","Very Strong Agreement","Very Strong Agreement","Very Strong Agreement","Very Strong Agreement","Very Strong Agreement","Strong Agreement","Very Strong Agreement","Very Strong Agreement","Very Strong Agreement","Very Strong Agreement","Very Strong Agreement","Strong Agreement","Very Strong Agreement","Strong Agreement","Very Strong Agreement","Very Strong Agreement"
"9","A2AMVY0LYCBZFL:3WS1NTTKEZI2BE0D2HJ3BDNMNZMF05","practice",1,9,1,"NA","<p style=""font-size:100px""><b>b</b></p><p style=""position: absolute; top: 30px; right: 30px; text-align:right; font-size:50px"""">N = 1</p>","b",0,69,1121,0,"agree",20,18,19,18,20,"32","Male","Is awesome experiment","Very Strong Agreement","Very Strong Agreement","Very Strong Agreement","Very Strong Agreement","Very Strong Agreement","Very Strong Agreement","Very Strong Agreement","Strong Agreement","Very Strong Agreement","Very Strong Agreement","Very Strong Agreement","Very Strong Agreement","Very Strong Agreement","Strong Agreement","Very Strong Agreement","Strong Agreement","Very Strong Agreement","Very Strong Agreement"
"10","A2AMVY0LYCBZFL:3WS1NTTKEZI2BE0D2HJ3BDNMNZMF05","practice",1,10,1,"NA","<p style=""font-size:100px""><b>d</b></p><p style=""position: absolute; top: 30px; right: 30px; text-align:right; font-size:50px"""">N = 1</p>","d",0,73,891,1,"agree",20,18,19,18,20,"32","Male","Is awesome experiment","Very Strong Agreement","Very Strong Agreement","Very Strong Agreement","Very Strong Agreement","Very Strong Agreement","Very Strong Agreement","Very Strong Agreement","Strong Agreement","Very Strong Agreement","Very Strong Agreement","Very Strong Agreement","Very Strong Agreement","Very Strong Agreement","Strong Agreement","Very Strong Agreement","Strong Agreement","Very Strong Agreement","Very Strong Agreement"
"11","A2AMVY0LYCBZFL:3WS1NTTKEZI2BE0D2HJ3BDNMNZMF05","practice",1,11,1,"NA","<p style=""font-size:100px""><b>d</b></p><p style=""position: absolute; top: 30px; right: 30px; text-align:right; font-size:50px"""">N = 1</p>","d",1,69,676,1,"agree",20,18,19,18,20,"32","Male","Is awesome experiment","Very Strong Agreement","Very Strong Agreement","Very Strong Agreement","Very Strong Agreement","Very Strong Agreement","Very Strong Agreement","Very Strong Agreement","Strong Agreement","Very Strong Agreement","Very Strong Agreement","Very Strong Agreement","Very Strong Agreement","Very Strong Agreement","Strong Agreement","Very Strong Agreement","Strong Agreement","Very Strong Agreement","Very Strong Agreement"
"12","A2AMVY0LYCBZFL:3WS1NTTKEZI2BE0D2HJ3BDNMNZMF05","practice",1,12,1,"NA","<p style=""font-size:100px""><b>P</b></p><p style=""position: absolute; top: 30px; right: 30px; text-align:right; font-size:50px"""">N = 1</p>","P",0,73,1458,1,"agree",20,18,19,18,20,"32","Male","Is awesome experiment","Very Strong Agreement","Very Strong Agreement","Very Strong Agreement","Very Strong Agreement","Very Strong Agreement","Very Strong Agreement","Very Strong Agreement","Strong Agreement","Very Strong Agreement","Very Strong Agreement","Very Strong Agreement","Very Strong Agreement","Very Strong Agreement","Strong Agreement","Very Strong Agreement","Strong Agreement","Very Strong Agreement","Very Strong Agreement"
"13","A2AMVY0LYCBZFL:3WS1NTTKEZI2BE0D2HJ3BDNMNZMF05","practice",2,1,2,"NA","<p style=""font-size:100px""><b>G</b></p><p style=""position: absolute; top: 30px; right: 30px; text-align:right; font-size:50px"""">N = 2</p>","G",0,73,1011,1,"agree",20,18,19,18,20,"32","Male","Is awesome experiment","Very Strong Agreement","Very Strong Agreement","Very Strong Agreement","Very Strong Agreement","Very Strong Agreement","Very Strong Agreement","Very Strong Agreement","Strong Agreement","Very Strong Agreement","Very Strong Agreement","Very Strong Agreement","Very Strong Agreement","Very Strong Agreement","Strong Agreement","Very Strong Agreement","Strong Agreement","Very Strong Agreement","Very Strong Agreement"
"14","A2AMVY0LYCBZFL:3WS1NTTKEZI2BE0D2HJ3BDNMNZMF05","practice",2,2,2,"NA","<p style=""font-size:100px""><b>P</b></p><p style=""position: absolute; top: 30px; right: 30px; text-align:right; font-size:50px"""">N = 2</p>","P",0,73,836,1,"agree",20,18,19,18,20,"32","Male","Is awesome experiment","Very Strong Agreement","Very Strong Agreement","Very Strong Agreement","Very Strong Agreement","Very Strong Agreement","Very Strong Agreement","Very Strong Agreement","Strong Agreement","Very Strong Agreement","Very Strong Agreement","Very Strong Agreement","Very Strong Agreement","Very Strong Agreement","Strong Agreement","Very Strong Agreement","Strong Agreement","Very Strong Agreement","Very Strong Agreement"
"15","A2AMVY0LYCBZFL:3WS1NTTKEZI2BE0D2HJ3BDNMNZMF05","practice",2,3,2,"NA","<p style=""font-size:100px""><b>G</b></p><p style=""position: absolute; top: 30px; right: 30px; text-align:right; font-size:50px"""">N = 2</p>","G",1,69,872,1,"agree",20,18,19,18,20,"32","Male","Is awesome experiment","Very Strong Agreement","Very Strong Agreement","Very Strong Agreement","Very Strong Agreement","Very Strong Agreement","Very Strong Agreement","Very Strong Agreement","Strong Agreement","Very Strong Agreement","Very Strong Agreement","Very Strong Agreement","Very Strong Agreement","Very Strong Agreement","Strong Agreement","Very Strong Agreement","Strong Agreement","Very Strong Agreement","Very Strong Agreement"
"16","A2AMVY0LYCBZFL:3WS1NTTKEZI2BE0D2HJ3BDNMNZMF05","practice",2,4,2,"NA","<p style=""font-size:100px""><b>t</b></p><p style=""position: absolute; top: 30px; right: 30px; text-align:right; font-size:50px"""">N = 2</p>","t",0,73,775,1,"agree",20,18,19,18,20,"32","Male","Is awesome experiment","Very Strong Agreement","Very Strong Agreement","Very Strong Agreement","Very Strong Agreement","Very Strong Agreement","Very Strong Agreement","Very Strong Agreement","Strong Agreement","Very Strong Agreement","Very Strong Agreement","Very Strong Agreement","Very Strong Agreement","Very Strong Agreement","Strong Agreement","Very Strong Agreement","Strong Agreement","Very Strong Agreement","Very Strong Agreement"
"17","A2AMVY0LYCBZFL:3WS1NTTKEZI2BE0D2HJ3BDNMNZMF05","practice",2,5,2,"NA","<p style=""font-size:100px""><b>t</b></p><p style=""position: absolute; top: 30px; right: 30px; text-align:right; font-size:50px"""">N = 2</p>","t",0,73,1028,1,"agree",20,18,19,18,20,"32","Male","Is awesome experiment","Very Strong Agreement","Very Strong Agreement","Very Strong Agreement","Very Strong Agreement","Very Strong Agreement","Very Strong Agreement","Very Strong Agreement","Strong Agreement","Very Strong Agreement","Very Strong Agreement","Very Strong Agreement","Very Strong Agreement","Very Strong Agreement","Strong Agreement","Very Strong Agreement","Strong Agreement","Very Strong Agreement","Very Strong Agreement"
"18","A2AMVY0LYCBZFL:3WS1NTTKEZI2BE0D2HJ3BDNMNZMF05","practice",2,6,2,"NA","<p style=""font-size:100px""><b>G</b></p><p style=""position: absolute; top: 30px; right: 30px; text-align:right; font-size:50px"""">N = 2</p>","G",0,69,795,0,"agree",20,18,19,18,20,"32","Male","Is awesome experiment","Very Strong Agreement","Very Strong Agreement","Very Strong Agreement","Very Strong Agreement","Very Strong Agreement","Very Strong Agreement","Very Strong Agreement","Strong Agreement","Very Strong Agreement","Very Strong Agreement","Very Strong Agreement","Very Strong Agreement","Very Strong Agreement","Strong Agreement","Very Strong Agreement","Strong Agreement","Very Strong Agreement","Very Strong Agreement"
"19","A2AMVY0LYCBZFL:3WS1NTTKEZI2BE0D2HJ3BDNMNZMF05","practice",2,7,2,"NA","<p style=""font-size:100px""><b>t</b></p><p style=""position: absolute; top: 30px; right: 30px; text-align:right; font-size:50px"""">N = 2</p>","t",1,73,775,0,"agree",20,18,19,18,20,"32","Male","Is awesome experiment","Very Strong Agreement","Very Strong Agreement","Very Strong Agreement","Very Strong Agreement","Very Strong Agreement","Very Strong Agreement","Very Strong Agreement","Strong Agreement","Very Strong Agreement","Very Strong Agreement","Very Strong Agreement","Very Strong Agreement","Very Strong Agreement","Strong Agreement","Very Strong Agreement","Strong Agreement","Very Strong Agreement","Very Strong Agreement"
"20","A2AMVY0LYCBZFL:3WS1NTTKEZI2BE0D2HJ3BDNMNZMF05","practice",2,8,2,"NA","<p style=""font-size:100px""><b>G</b></p><p style=""position: absolute; top: 30px; right: 30px; text-align:right; font-size:50px"""">N = 2</p>","G",1,69,684,1,"agree",20,18,19,18,20,"32","Male","Is awesome experiment","Very Strong Agreement","Very Strong Agreement","Very Strong Agreement","Very Strong Agreement","Very Strong Agreement","Very Strong Agreement","Very Strong Agreement","Strong Agreement","Very Strong Agreement","Very Strong Agreement","Very Strong Agreement","Very Strong Agreement","Very Strong Agreement","Strong Agreement","Very Strong Agreement","Strong Agreement","Very Strong Agreement","Very Strong Agreement"
"21","A2AMVY0LYCBZFL:3WS1NTTKEZI2BE0D2HJ3BDNMNZMF05","practice",2,9,2,"NA","<p style=""font-size:100px""><b>t</b></p><p style=""position: absolute; top: 30px; right: 30px; text-align:right; font-size:50px"""">N = 2</p>","t",1,69,609,1,"agree",20,18,19,18,20,"32","Male","Is awesome experiment","Very Strong Agreement","Very Strong Agreement","Very Strong Agreement","Very Strong Agreement","Very Strong Agreement","Very Strong Agreement","Very Strong Agreement","Strong Agreement","Very Strong Agreement","Very Strong Agreement","Very Strong Agreement","Very Strong Agreement","Very Strong Agreement","Strong Agreement","Very Strong Agreement","Strong Agreement","Very Strong Agreement","Very Strong Agreement"
"22","A2AMVY0LYCBZFL:3WS1NTTKEZI2BE0D2HJ3BDNMNZMF05","practice",2,10,2,"NA","<p style=""font-size:100px""><b>b</b></p><p style=""position: absolute; top: 30px; right: 30px; text-align:right; font-size:50px"""">N = 2</p>","b",0,73,1001,1,"agree",20,18,19,18,20,"32","Male","Is awesome experiment","Very Strong Agreement","Very Strong Agreement","Very Strong Agreement","Very Strong Agreement","Very Strong Agreement","Very Strong Agreement","Very Strong Agreement","Strong Agreement","Very Strong Agreement","Very Strong Agreement","Very Strong Agreement","Very Strong Agreement","Very Strong Agreement","Strong Agreement","Very Strong Agreement","Strong Agreement","Very Strong Agreement","Very Strong Agreement"
"23","A2AMVY0LYCBZFL:3WS1NTTKEZI2BE0D2HJ3BDNMNZMF05","practice",2,11,2,"NA","<p style=""font-size:100px""><b>b</b></p><p style=""position: absolute; top: 30px; right: 30px; text-align:right; font-size:50px"""">N = 2</p>","b",0,73,1015,1,"agree",20,18,19,18,20,"32","Male","Is awesome experiment","Very Strong Agreement","Very Strong Agreement","Very Strong Agreement","Very Strong Agreement","Very Strong Agreement","Very Strong Agreement","Very Strong Agreement","Strong Agreement","Very Strong Agreement","Very Strong Agreement","Very Strong Agreement","Very Strong Agreement","Very Strong Agreement","Strong Agreement","Very Strong Agreement","Strong Agreement","Very Strong Agreement","Very Strong Agreement"
"24","A2AMVY0LYCBZFL:3WS1NTTKEZI2BE0D2HJ3BDNMNZMF05","practice",2,12,2,"NA","<p style=""font-size:100px""><b>d</b></p><p style=""position: absolute; top: 30px; right: 30px; text-align:right; font-size:50px"""">N = 2</p>","d",0,73,1186,1,"agree",20,18,19,18,20,"32","Male","Is awesome experiment","Very Strong Agreement","Very Strong Agreement","Very Strong Agreement","Very Strong Agreement","Very Strong Agreement","Very Strong Agreement","Very Strong Agreement","Strong Agreement","Very Strong Agreement","Very Strong Agreement","Very Strong Agreement","Very Strong Agreement","Very Strong Agreement","Strong Agreement","Very Strong Agreement","Strong Agreement","Very Strong Agreement","Very Strong Agreement"
"25","A2AMVY0LYCBZFL:3WS1NTTKEZI2BE0D2HJ3BDNMNZMF05","practice",3,1,3,"NA","<p style=""font-size:100px""><b>b</b></p><p style=""position: absolute; top: 30px; right: 30px; text-align:right; font-size:50px"""">N = 3</p>","b",0,73,1854,1,"agree",20,18,19,18,20,"32","Male","Is awesome experiment","Very Strong Agreement","Very Strong Agreement","Very Strong Agreement","Very Strong Agreement","Very Strong Agreement","Very Strong Agreement","Very Strong Agreement","Strong Agreement","Very Strong Agreement","Very Strong Agreement","Very Strong Agreement","Very Strong Agreement","Very Strong Agreement","Strong Agreement","Very Strong Agreement","Strong Agreement","Very Strong Agreement","Very Strong Agreement"
"26","A2AMVY0LYCBZFL:3WS1NTTKEZI2BE0D2HJ3BDNMNZMF05","practice",3,2,3,"NA","<p style=""font-size:100px""><b>g</b></p><p style=""position: absolute; top: 30px; right: 30px; text-align:right; font-size:50px"""">N = 3</p>","g",0,73,950,1,"agree",20,18,19,18,20,"32","Male","Is awesome experiment","Very Strong Agreement","Very Strong Agreement","Very Strong Agreement","Very Strong Agreement","Very Strong Agreement","Very Strong Agreement","Very Strong Agreement","Strong Agreement","Very Strong Agreement","Very Strong Agreement","Very Strong Agreement","Very Strong Agreement","Very Strong Agreement","Strong Agreement","Very Strong Agreement","Strong Agreement","Very Strong Agreement","Very Strong Agreement"
"27","A2AMVY0LYCBZFL:3WS1NTTKEZI2BE0D2HJ3BDNMNZMF05","practice",3,3,3,"NA","<p style=""font-size:100px""><b>D</b></p><p style=""position: absolute; top: 30px; right: 30px; text-align:right; font-size:50px"""">N = 3</p>","D",0,73,847,1,"agree",20,18,19,18,20,"32","Male","Is awesome experiment","Very Strong Agreement","Very Strong Agreement","Very Strong Agreement","Very Strong Agreement","Very Strong Agreement","Very Strong Agreement","Very Strong Agreement","Strong Agreement","Very Strong Agreement","Very Strong Agreement","Very Strong Agreement","Very Strong Agreement","Very Strong Agreement","Strong Agreement","Very Strong Agreement","Strong Agreement","Very Strong Agreement","Very Strong Agreement"
"28","A2AMVY0LYCBZFL:3WS1NTTKEZI2BE0D2HJ3BDNMNZMF05","practice",3,4,3,"NA","<p style=""font-size:100px""><b>b</b></p><p style=""position: absolute; top: 30px; right: 30px; text-align:right; font-size:50px"""">N = 3</p>","b",1,73,925,0,"agree",20,18,19,18,20,"32","Male","Is awesome experiment","Very Strong Agreement","Very Strong Agreement","Very Strong Agreement","Very Strong Agreement","Very Strong Agreement","Very Strong Agreement","Very Strong Agreement","Strong Agreement","Very Strong Agreement","Very Strong Agreement","Very Strong Agreement","Very Strong Agreement","Very Strong Agreement","Strong Agreement","Very Strong Agreement","Strong Agreement","Very Strong Agreement","Very Strong Agreement"
"29","A2AMVY0LYCBZFL:3WS1NTTKEZI2BE0D2HJ3BDNMNZMF05","practice",3,5,3,"NA","<p style=""font-size:100px""><b>B</b></p><p style=""position: absolute; top: 30px; right: 30px; text-align:right; font-size:50px"""">N = 3</p>","B",0,73,780,1,"agree",20,18,19,18,20,"32","Male","Is awesome experiment","Very Strong Agreement","Very Strong Agreement","Very Strong Agreement","Very Strong Agreement","Very Strong Agreement","Very Strong Agreement","Very Strong Agreement","Strong Agreement","Very Strong Agreement","Very Strong Agreement","Very Strong Agreement","Very Strong Agreement","Very Strong Agreement","Strong Agreement","Very Strong Agreement","Strong Agreement","Very Strong Agreement","Very Strong Agreement"
"30","A2AMVY0LYCBZFL:3WS1NTTKEZI2BE0D2HJ3BDNMNZMF05","practice",3,6,3,"NA","<p style=""font-size:100px""><b>D</b></p><p style=""position: absolute; top: 30px; right: 30px; text-align:right; font-size:50px"""">N = 3</p>","D",1,69,875,1,"agree",20,18,19,18,20,"32","Male","Is awesome experiment","Very Strong Agreement","Very Strong Agreement","Very Strong Agreement","Very Strong Agreement","Very Strong Agreement","Very Strong Agreement","Very Strong Agreement","Strong Agreement","Very Strong Agreement","Very Strong Agreement","Very Strong Agreement","Very Strong Agreement","Very Strong Agreement","Strong Agreement","Very Strong Agreement","Strong Agreement","Very Strong Agreement","Very Strong Agreement"
"31","A2AMVY0LYCBZFL:3WS1NTTKEZI2BE0D2HJ3BDNMNZMF05","practice",3,7,3,"NA","<p style=""font-size:100px""><b>G</b></p><p style=""position: absolute; top: 30px; right: 30px; text-align:right; font-size:50px"""">N = 3</p>","G",0,69,720,0,"agree",20,18,19,18,20,"32","Male","Is awesome experiment","Very Strong Agreement","Very Strong Agreement","Very Strong Agreement","Very Strong Agreement","Very Strong Agreement","Very Strong Agreement","Very Strong Agreement","Strong Agreement","Very Strong Agreement","Very Strong Agreement","Very Strong Agreement","Very Strong Agreement","Very Strong Agreement","Strong Agreement","Very Strong Agreement","Strong Agreement","Very Strong Agreement","Very Strong Agreement"
"32","A2AMVY0LYCBZFL:3WS1NTTKEZI2BE0D2HJ3BDNMNZMF05","practice",3,8,3,"NA","<p style=""font-size:100px""><b>d</b></p><p style=""position: absolute; top: 30px; right: 30px; text-align:right; font-size:50px"""">N = 3</p>","d",0,73,763,1,"agree",20,18,19,18,20,"32","Male","Is awesome experiment","Very Strong Agreement","Very Strong Agreement","Very Strong Agreement","Very Strong Agreement","Very Strong Agreement","Very Strong Agreement","Very Strong Agreement","Strong Agreement","Very Strong Agreement","Very Strong Agreement","Very Strong Agreement","Very Strong Agreement","Very Strong Agreement","Strong Agreement","Very Strong Agreement","Strong Agreement","Very Strong Agreement","Very Strong Agreement"
"33","A2AMVY0LYCBZFL:3WS1NTTKEZI2BE0D2HJ3BDNMNZMF05","practice",3,9,3,"NA","<p style=""font-size:100px""><b>D</b></p><p style=""position: absolute; top: 30px; right: 30px; text-align:right; font-size:50px"""">N = 3</p>","D",1,69,1016,1,"agree",20,18,19,18,20,"32","Male","Is awesome experiment","Very Strong Agreement","Very Strong Agreement","Very Strong Agreement","Very Strong Agreement","Very Strong Agreement","Very Strong Agreement","Very Strong Agreement","Strong Agreement","Very Strong Agreement","Very Strong Agreement","Very Strong Agreement","Very Strong Agreement","Very Strong Agreement","Strong Agreement","Very Strong Agreement","Strong Agreement","Very Strong Agreement","Very Strong Agreement"
"34","A2AMVY0LYCBZFL:3WS1NTTKEZI2BE0D2HJ3BDNMNZMF05","practice",3,10,3,"NA","<p style=""font-size:100px""><b>V</b></p><p style=""position: absolute; top: 30px; right: 30px; text-align:right; font-size:50px"""">N = 3</p>","V",0,73,651,1,"agree",20,18,19,18,20,"32","Male","Is awesome experiment","Very Strong Agreement","Very Strong Agreement","Very Strong Agreement","Very Strong Agreement","Very Strong Agreement","Very Strong Agreement","Very Strong Agreement","Strong Agreement","Very Strong Agreement","Very Strong Agreement","Very Strong Agreement","Very Strong Agreement","Very Strong Agreement","Strong Agreement","Very Strong Agreement","Strong Agreement","Very Strong Agreement","Very Strong Agreement"
"35","A2AMVY0LYCBZFL:3WS1NTTKEZI2BE0D2HJ3BDNMNZMF05","practice",3,11,3,"NA","<p style=""font-size:100px""><b>T</b></p><p style=""position: absolute; top: 30px; right: 30px; text-align:right; font-size:50px"""">N = 3</p>","T",0,73,1072,1,"agree",20,18,19,18,20,"32","Male","Is awesome experiment","Very Strong Agreement","Very Strong Agreement","Very Strong Agreement","Very Strong Agreement","Very Strong Agreement","Very Strong Agreement","Very Strong Agreement","Strong Agreement","Very Strong Agreement","Very Strong Agreement","Very Strong Agreement","Very Strong Agreement","Very Strong Agreement","Strong Agreement","Very Strong Agreement","Strong Agreement","Very Strong Agreement","Very Strong Agreement"
"36","A2AMVY0LYCBZFL:3WS1NTTKEZI2BE0D2HJ3BDNMNZMF05","practice",3,12,3,"NA","<p style=""font-size:100px""><b>D</b></p><p style=""position: absolute; top: 30px; right: 30px; text-align:right; font-size:50px"""">N = 3</p>","D",1,69,838,1,"agree",20,18,19,18,20,"32","Male","Is awesome experiment","Very Strong Agreement","Very Strong Agreement","Very Strong Agreement","Very Strong Agreement","Very Strong Agreement","Very Strong Agreement","Very Strong Agreement","Strong Agreement","Very Strong Agreement","Very Strong Agreement","Very Strong Agreement","Very Strong Agreement","Very Strong Agreement","Strong Agreement","Very Strong Agreement","Strong Agreement","Very Strong Agreement","Very Strong Agreement"
"37","A2AMVY0LYCBZFL:3WS1NTTKEZI2BE0D2HJ3BDNMNZMF05","1",1,1,2,"50","<p style=""font-size:100px""><b>T</b></p><p style=""position: absolute; top: 30px; right: 30px; text-align:right; font-size:50px"""">N = 2</p>","T",0,NA,NA,0,"agree",20,18,19,18,20,"32","Male","Is awesome experiment","Very Strong Agreement","Very Strong Agreement","Very Strong Agreement","Very Strong Agreement","Very Strong Agreement","Very Strong Agreement","Very Strong Agreement","Strong Agreement","Very Strong Agreement","Very Strong Agreement","Very Strong Agreement","Very Strong Agreement","Very Strong Agreement","Strong Agreement","Very Strong Agreement","Strong Agreement","Very Strong Agreement","Very Strong Agreement"
"38","A2AMVY0LYCBZFL:3WS1NTTKEZI2BE0D2HJ3BDNMNZMF05","1",1,2,2,"50","<p style=""font-size:100px""><b>G</b></p><p style=""position: absolute; top: 30px; right: 30px; text-align:right; font-size:50px"""">N = 2</p>","G",0,NA,NA,0,"agree",20,18,19,18,20,"32","Male","Is awesome experiment","Very Strong Agreement","Very Strong Agreement","Very Strong Agreement","Very Strong Agreement","Very Strong Agreement","Very Strong Agreement","Very Strong Agreement","Strong Agreement","Very Strong Agreement","Very Strong Agreement","Very Strong Agreement","Very Strong Agreement","Very Strong Agreement","Strong Agreement","Very Strong Agreement","Strong Agreement","Very Strong Agreement","Very Strong Agreement"
"39","A2AMVY0LYCBZFL:3WS1NTTKEZI2BE0D2HJ3BDNMNZMF05","1",1,3,2,"50","<p style=""font-size:100px""><b>T</b></p><p style=""position: absolute; top: 30px; right: 30px; text-align:right; font-size:50px"""">N = 2</p>","T",0,NA,NA,0,"agree",20,18,19,18,20,"32","Male","Is awesome experiment","Very Strong Agreement","Very Strong Agreement","Very Strong Agreement","Very Strong Agreement","Very Strong Agreement","Very Strong Agreement","Very Strong Agreement","Strong Agreement","Very Strong Agreement","Very Strong Agreement","Very Strong Agreement","Very Strong Agreement","Very Strong Agreement","Strong Agreement","Very Strong Agreement","Strong Agreement","Very Strong Agreement","Very Strong Agreement"
"40","A2AMVY0LYCBZFL:3WS1NTTKEZI2BE0D2HJ3BDNMNZMF05","1",1,4,2,"50","<p style=""font-size:100px""><b>B</b></p><p style=""position: absolute; top: 30px; right: 30px; text-align:right; font-size:50px"""">N = 2</p>","B",0,73,928,1,"agree",20,18,19,18,20,"32","Male","Is awesome experiment","Very Strong Agreement","Very Strong Agreement","Very Strong Agreement","Very Strong Agreement","Very Strong Agreement","Very Strong Agreement","Very Strong Agreement","Strong Agreement","Very Strong Agreement","Very Strong Agreement","Very Strong Agreement","Very Strong Agreement","Very Strong Agreement","Strong Agreement","Very Strong Agreement","Strong Agreement","Very Strong Agreement","Very Strong Agreement"
"41","A2AMVY0LYCBZFL:3WS1NTTKEZI2BE0D2HJ3BDNMNZMF05","1",1,5,2,"50","<p style=""font-size:100px""><b>g</b></p><p style=""position: absolute; top: 30px; right: 30px; text-align:right; font-size:50px"""">N = 2</p>","g",0,73,699,1,"agree",20,18,19,18,20,"32","Male","Is awesome experiment","Very Strong Agreement","Very Strong Agreement","Very Strong Agreement","Very Strong Agreement","Very Strong Agreement","Very Strong Agreement","Very Strong Agreement","Strong Agreement","Very Strong Agreement","Very Strong Agreement","Very Strong Agreement","Very Strong Agreement","Very Strong Agreement","Strong Agreement","Very Strong Agreement","Strong Agreement","Very Strong Agreement","Very Strong Agreement"
"42","A2AMVY0LYCBZFL:3WS1NTTKEZI2BE0D2HJ3BDNMNZMF05","1",1,6,2,"50","<p style=""font-size:100px""><b>T</b></p><p style=""position: absolute; top: 30px; right: 30px; text-align:right; font-size:50px"""">N = 2</p>","T",0,69,762,0,"agree",20,18,19,18,20,"32","Male","Is awesome experiment","Very Strong Agreement","Very Strong Agreement","Very Strong Agreement","Very Strong Agreement","Very Strong Agreement","Very Strong Agreement","Very Strong Agreement","Strong Agreement","Very Strong Agreement","Very Strong Agreement","Very Strong Agreement","Very Strong Agreement","Very Strong Agreement","Strong Agreement","Very Strong Agreement","Strong Agreement","Very Strong Agreement","Very Strong Agreement"
"43","A2AMVY0LYCBZFL:3WS1NTTKEZI2BE0D2HJ3BDNMNZMF05","1",1,7,2,"50","<p style=""font-size:100px""><b>b</b></p><p style=""position: absolute; top: 30px; right: 30px; text-align:right; font-size:50px"""">N = 2</p>","b",0,NA,NA,0,"agree",20,18,19,18,20,"32","Male","Is awesome experiment","Very Strong Agreement","Very Strong Agreement","Very Strong Agreement","Very Strong Agreement","Very Strong Agreement","Very Strong Agreement","Very Strong Agreement","Strong Agreement","Very Strong Agreement","Very Strong Agreement","Very Strong Agreement","Very Strong Agreement","Very Strong Agreement","Strong Agreement","Very Strong Agreement","Strong Agreement","Very Strong Agreement","Very Strong Agreement"
"44","A2AMVY0LYCBZFL:3WS1NTTKEZI2BE0D2HJ3BDNMNZMF05","1",1,8,2,"50","<p style=""font-size:100px""><b>T</b></p><p style=""position: absolute; top: 30px; right: 30px; text-align:right; font-size:50px"""">N = 2</p>","T",0,69,721,0,"agree",20,18,19,18,20,"32","Male","Is awesome experiment","Very Strong Agreement","Very Strong Agreement","Very Strong Agreement","Very Strong Agreement","Very Strong Agreement","Very Strong Agreement","Very Strong Agreement","Strong Agreement","Very Strong Agreement","Very Strong Agreement","Very Strong Agreement","Very Strong Agreement","Very Strong Agreement","Strong Agreement","Very Strong Agreement","Strong Agreement","Very Strong Agreement","Very Strong Agreement"
"45","A2AMVY0LYCBZFL:3WS1NTTKEZI2BE0D2HJ3BDNMNZMF05","1",1,9,2,"50","<p style=""font-size:100px""><b>G</b></p><p style=""position: absolute; top: 30px; right: 30px; text-align:right; font-size:50px"""">N = 2</p>","G",0,73,872,1,"agree",20,18,19,18,20,"32","Male","Is awesome experiment","Very Strong Agreement","Very Strong Agreement","Very Strong Agreement","Very Strong Agreement","Very Strong Agreement","Very Strong Agreement","Very Strong Agreement","Strong Agreement","Very Strong Agreement","Very Strong Agreement","Very Strong Agreement","Very Strong Agreement","Very Strong Agreement","Strong Agreement","Very Strong Agreement","Strong Agreement","Very Strong Agreement","Very Strong Agreement"
"46","A2AMVY0LYCBZFL:3WS1NTTKEZI2BE0D2HJ3BDNMNZMF05","1",1,10,2,"50","<p style=""font-size:100px""><b>g</b></p><p style=""position: absolute; top: 30px; right: 30px; text-align:right; font-size:50px"""">N = 2</p>","g",0,69,827,0,"agree",20,18,19,18,20,"32","Male","Is awesome experiment","Very Strong Agreement","Very Strong Agreement","Very Strong Agreement","Very Strong Agreement","Very Strong Agreement","Very Strong Agreement","Very Strong Agreement","Strong Agreement","Very Strong Agreement","Very Strong Agreement","Very Strong Agreement","Very Strong Agreement","Very Strong Agreement","Strong Agreement","Very Strong Agreement","Strong Agreement","Very Strong Agreement","Very Strong Agreement"
"47","A2AMVY0LYCBZFL:3WS1NTTKEZI2BE0D2HJ3BDNMNZMF05","1",1,11,2,"50","<p style=""font-size:100px""><b>G</b></p><p style=""position: absolute; top: 30px; right: 30px; text-align:right; font-size:50px"""">N = 2</p>","G",0,69,594,0,"agree",20,18,19,18,20,"32","Male","Is awesome experiment","Very Strong Agreement","Very Strong Agreement","Very Strong Agreement","Very Strong Agreement","Very Strong Agreement","Very Strong Agreement","Very Strong Agreement","Strong Agreement","Very Strong Agreement","Very Strong Agreement","Very Strong Agreement","Very Strong Agreement","Very Strong Agreement","Strong Agreement","Very Strong Agreement","Strong Agreement","Very Strong Agreement","Very Strong Agreement"
"48","A2AMVY0LYCBZFL:3WS1NTTKEZI2BE0D2HJ3BDNMNZMF05","1",1,12,2,"50","<p style=""font-size:100px""><b>g</b></p><p style=""position: absolute; top: 30px; right: 30px; text-align:right; font-size:50px"""">N = 2</p>","g",0,69,773,0,"agree",20,18,19,18,20,"32","Male","Is awesome experiment","Very Strong Agreement","Very Strong Agreement","Very Strong Agreement","Very Strong Agreement","Very Strong Agreement","Very Strong Agreement","Very Strong Agreement","Strong Agreement","Very Strong Agreement","Very Strong Agreement","Very Strong Agreement","Very Strong Agreement","Very Strong Agreement","Strong Agreement","Very Strong Agreement","Strong Agreement","Very Strong Agreement","Very Strong Agreement"
"49","A2AMVY0LYCBZFL:3WS1NTTKEZI2BE0D2HJ3BDNMNZMF05","1",2,1,1,"50","<p style=""font-size:100px""><b>B</b></p><p style=""position: absolute; top: 30px; right: 30px; text-align:right; font-size:50px"""">N = 1</p>","B",0,NA,NA,0,"agree",19,19,21,20,19,"32","Male","Is awesome experiment","Very Strong Agreement","Very Strong Agreement","Very Strong Agreement","Very Strong Agreement","Very Strong Agreement","Very Strong Agreement","Very Strong Agreement","Strong Agreement","Very Strong Agreement","Very Strong Agreement","Very Strong Agreement","Very Strong Agreement","Very Strong Agreement","Strong Agreement","Very Strong Agreement","Strong Agreement","Very Strong Agreement","Very Strong Agreement"
"50","A2AMVY0LYCBZFL:3WS1NTTKEZI2BE0D2HJ3BDNMNZMF05","1",2,2,1,"50","<p style=""font-size:100px""><b>v</b></p><p style=""position: absolute; top: 30px; right: 30px; text-align:right; font-size:50px"""">N = 1</p>","v",0,73,715,1,"agree",19,19,21,20,19,"32","Male","Is awesome experiment","Very Strong Agreement","Very Strong Agreement","Very Strong Agreement","Very Strong Agreement","Very Strong Agreement","Very Strong Agreement","Very Strong Agreement","Strong Agreement","Very Strong Agreement","Very Strong Agreement","Very Strong Agreement","Very Strong Agreement","Very Strong Agreement","Strong Agreement","Very Strong Agreement","Strong Agreement","Very Strong Agreement","Very Strong Agreement"
"51","A2AMVY0LYCBZFL:3WS1NTTKEZI2BE0D2HJ3BDNMNZMF05","1",2,3,1,"50","<p style=""font-size:100px""><b>t</b></p><p style=""position: absolute; top: 30px; right: 30px; text-align:right; font-size:50px"""">N = 1</p>","t",0,73,583,1,"agree",19,19,21,20,19,"32","Male","Is awesome experiment","Very Strong Agreement","Very Strong Agreement","Very Strong Agreement","Very Strong Agreement","Very Strong Agreement","Very Strong Agreement","Very Strong Agreement","Strong Agreement","Very Strong Agreement","Very Strong Agreement","Very Strong Agreement","Very Strong Agreement","Very Strong Agreement","Strong Agreement","Very Strong Agreement","Strong Agreement","Very Strong Agreement","Very Strong Agreement"
"52","A2AMVY0LYCBZFL:3WS1NTTKEZI2BE0D2HJ3BDNMNZMF05","1",2,4,1,"50","<p style=""font-size:100px""><b>t</b></p><p style=""position: absolute; top: 30px; right: 30px; text-align:right; font-size:50px"""">N = 1</p>","t",0,69,675,0,"agree",19,19,21,20,19,"32","Male","Is awesome experiment","Very Strong Agreement","Very Strong Agreement","Very Strong Agreement","Very Strong Agreement","Very Strong Agreement","Very Strong Agreement","Very Strong Agreement","Strong Agreement","Very Strong Agreement","Very Strong Agreement","Very Strong Agreement","Very Strong Agreement","Very Strong Agreement","Strong Agreement","Very Strong Agreement","Strong Agreement","Very Strong Agreement","Very Strong Agreement"
"53","A2AMVY0LYCBZFL:3WS1NTTKEZI2BE0D2HJ3BDNMNZMF05","1",2,5,1,"50","<p style=""font-size:100px""><b>B</b></p><p style=""position: absolute; top: 30px; right: 30px; text-align:right; font-size:50px"""">N = 1</p>","B",0,73,694,1,"agree",19,19,21,20,19,"32","Male","Is awesome experiment","Very Strong Agreement","Very Strong Agreement","Very Strong Agreement","Very Strong Agreement","Very Strong Agreement","Very Strong Agreement","Very Strong Agreement","Strong Agreement","Very Strong Agreement","Very Strong Agreement","Very Strong Agreement","Very Strong Agreement","Very Strong Agreement","Strong Agreement","Very Strong Agreement","Strong Agreement","Very Strong Agreement","Very Strong Agreement"
"54","A2AMVY0LYCBZFL:3WS1NTTKEZI2BE0D2HJ3BDNMNZMF05","1",2,6,1,"50","<p style=""font-size:100px""><b>B</b></p><p style=""position: absolute; top: 30px; right: 30px; text-align:right; font-size:50px"""">N = 1</p>","B",0,69,481,0,"agree",19,19,21,20,19,"32","Male","Is awesome experiment","Very Strong Agreement","Very Strong Agreement","Very Strong Agreement","Very Strong Agreement","Very Strong Agreement","Very Strong Agreement","Very Strong Agreement","Strong Agreement","Very Strong Agreement","Very Strong Agreement","Very Strong Agreement","Very Strong Agreement","Very Strong Agreement","Strong Agreement","Very Strong Agreement","Strong Agreement","Very Strong Agreement","Very Strong Agreement"
"55","A2AMVY0LYCBZFL:3WS1NTTKEZI2BE0D2HJ3BDNMNZMF05","1",2,7,1,"50","<p style=""font-size:100px""><b>D</b></p><p style=""position: absolute; top: 30px; right: 30px; text-align:right; font-size:50px"""">N = 1</p>","D",0,73,558,1,"agree",19,19,21,20,19,"32","Male","Is awesome experiment","Very Strong Agreement","Very Strong Agreement","Very Strong Agreement","Very Strong Agreement","Very Strong Agreement","Very Strong Agreement","Very Strong Agreement","Strong Agreement","Very Strong Agreement","Very Strong Agreement","Very Strong Agreement","Very Strong Agreement","Very Strong Agreement","Strong Agreement","Very Strong Agreement","Strong Agreement","Very Strong Agreement","Very Strong Agreement"
"56","A2AMVY0LYCBZFL:3WS1NTTKEZI2BE0D2HJ3BDNMNZMF05","1",2,8,1,"50","<p style=""font-size:100px""><b>b</b></p><p style=""position: absolute; top: 30px; right: 30px; text-align:right; font-size:50px"""">N = 1</p>","b",0,73,925,1,"agree",19,19,21,20,19,"32","Male","Is awesome experiment","Very Strong Agreement","Very Strong Agreement","Very Strong Agreement","Very Strong Agreement","Very Strong Agreement","Very Strong Agreement","Very Strong Agreement","Strong Agreement","Very Strong Agreement","Very Strong Agreement","Very Strong Agreement","Very Strong Agreement","Very Strong Agreement","Strong Agreement","Very Strong Agreement","Strong Agreement","Very Strong Agreement","Very Strong Agreement"
"57","A2AMVY0LYCBZFL:3WS1NTTKEZI2BE0D2HJ3BDNMNZMF05","1",2,9,1,"50","<p style=""font-size:100px""><b>b</b></p><p style=""position: absolute; top: 30px; right: 30px; text-align:right; font-size:50px"""">N = 1</p>","b",0,69,695,0,"agree",19,19,21,20,19,"32","Male","Is awesome experiment","Very Strong Agreement","Very Strong Agreement","Very Strong Agreement","Very Strong Agreement","Very Strong Agreement","Very Strong Agreement","Very Strong Agreement","Strong Agreement","Very Strong Agreement","Very Strong Agreement","Very Strong Agreement","Very Strong Agreement","Very Strong Agreement","Strong Agreement","Very Strong Agreement","Strong Agreement","Very Strong Agreement","Very Strong Agreement"
"58","A2AMVY0LYCBZFL:3WS1NTTKEZI2BE0D2HJ3BDNMNZMF05","1",2,10,1,"50","<p style=""font-size:100px""><b>g</b></p><p style=""position: absolute; top: 30px; right: 30px; text-align:right; font-size:50px"""">N = 1</p>","g",0,73,660,1,"agree",19,19,21,20,19,"32","Male","Is awesome experiment","Very Strong Agreement","Very Strong Agreement","Very Strong Agreement","Very Strong Agreement","Very Strong Agreement","Very Strong Agreement","Very Strong Agreement","Strong Agreement","Very Strong Agreement","Very Strong Agreement","Very Strong Agreement","Very Strong Agreement","Very Strong Agreement","Strong Agreement","Very Strong Agreement","Strong Agreement","Very Strong Agreement","Very Strong Agreement"
"59","A2AMVY0LYCBZFL:3WS1NTTKEZI2BE0D2HJ3BDNMNZMF05","1",2,11,1,"50","<p style=""font-size:100px""><b>V</b></p><p style=""position: absolute; top: 30px; right: 30px; text-align:right; font-size:50px"""">N = 1</p>","V",0,73,556,1,"agree",19,19,21,20,19,"32","Male","Is awesome experiment","Very Strong Agreement","Very Strong Agreement","Very Strong Agreement","Very Strong Agreement","Very Strong Agreement","Very Strong Agreement","Very Strong Agreement","Strong Agreement","Very Strong Agreement","Very Strong Agreement","Very Strong Agreement","Very Strong Agreement","Very Strong Agreement","Strong Agreement","Very Strong Agreement","Strong Agreement","Very Strong Agreement","Very Strong Agreement"
"60","A2AMVY0LYCBZFL:3WS1NTTKEZI2BE0D2HJ3BDNMNZMF05","1",2,12,1,"50","<p style=""font-size:100px""><b>V</b></p><p style=""position: absolute; top: 30px; right: 30px; text-align:right; font-size:50px"""">N = 1</p>","V",0,69,741,0,"agree",19,19,21,20,19,"32","Male","Is awesome experiment","Very Strong Agreement","Very Strong Agreement","Very Strong Agreement","Very Strong Agreement","Very Strong Agreement","Very Strong Agreement","Very Strong Agreement","Strong Agreement","Very Strong Agreement","Very Strong Agreement","Very Strong Agreement","Very Strong Agreement","Very Strong Agreement","Strong Agreement","Very Strong Agreement","Strong Agreement","Very Strong Agreement","Very Strong Agreement"
"61","A2AMVY0LYCBZFL:3WS1NTTKEZI2BE0D2HJ3BDNMNZMF05","1",3,1,3,"5","<p style=""font-size:100px""><b>D</b></p><p style=""position: absolute; top: 30px; right: 30px; text-align:right; font-size:50px"""">N = 3</p>","D",0,NA,NA,0,"agree",19,20,21,20,21,"32","Male","Is awesome experiment","Very Strong Agreement","Very Strong Agreement","Very Strong Agreement","Very Strong Agreement","Very Strong Agreement","Very Strong Agreement","Very Strong Agreement","Strong Agreement","Very Strong Agreement","Very Strong Agreement","Very Strong Agreement","Very Strong Agreement","Very Strong Agreement","Strong Agreement","Very Strong Agreement","Strong Agreement","Very Strong Agreement","Very Strong Agreement"
"62","A2AMVY0LYCBZFL:3WS1NTTKEZI2BE0D2HJ3BDNMNZMF05","1",3,2,3,"5","<p style=""font-size:100px""><b>g</b></p><p style=""position: absolute; top: 30px; right: 30px; text-align:right; font-size:50px"""">N = 3</p>","g",0,NA,NA,0,"agree",19,20,21,20,21,"32","Male","Is awesome experiment","Very Strong Agreement","Very Strong Agreement","Very Strong Agreement","Very Strong Agreement","Very Strong Agreement","Very Strong Agreement","Very Strong Agreement","Strong Agreement","Very Strong Agreement","Very Strong Agreement","Very Strong Agreement","Very Strong Agreement","Very Strong Agreement","Strong Agreement","Very Strong Agreement","Strong Agreement","Very Strong Agreement","Very Strong Agreement"
"63","A2AMVY0LYCBZFL:3WS1NTTKEZI2BE0D2HJ3BDNMNZMF05","1",3,3,3,"5","<p style=""font-size:100px""><b>p</b></p><p style=""position: absolute; top: 30px; right: 30px; text-align:right; font-size:50px"""">N = 3</p>","p",0,73,861,1,"agree",19,20,21,20,21,"32","Male","Is awesome experiment","Very Strong Agreement","Very Strong Agreement","Very Strong Agreement","Very Strong Agreement","Very Strong Agreement","Very Strong Agreement","Very Strong Agreement","Strong Agreement","Very Strong Agreement","Very Strong Agreement","Very Strong Agreement","Very Strong Agreement","Very Strong Agreement","Strong Agreement","Very Strong Agreement","Strong Agreement","Very Strong Agreement","Very Strong Agreement"
"64","A2AMVY0LYCBZFL:3WS1NTTKEZI2BE0D2HJ3BDNMNZMF05","1",3,4,3,"5","<p style=""font-size:100px""><b>B</b></p><p style=""position: absolute; top: 30px; right: 30px; text-align:right; font-size:50px"""">N = 3</p>","B",0,73,845,1,"agree",19,20,21,20,21,"32","Male","Is awesome experiment","Very Strong Agreement","Very Strong Agreement","Very Strong Agreement","Very Strong Agreement","Very Strong Agreement","Very Strong Agreement","Very Strong Agreement","Strong Agreement","Very Strong Agreement","Very Strong Agreement","Very Strong Agreement","Very Strong Agreement","Very Strong Agreement","Strong Agreement","Very Strong Agreement","Strong Agreement","Very Strong Agreement","Very Strong Agreement"
"65","A2AMVY0LYCBZFL:3WS1NTTKEZI2BE0D2HJ3BDNMNZMF05","1",3,5,3,"5","<p style=""font-size:100px""><b>g</b></p><p style=""position: absolute; top: 30px; right: 30px; text-align:right; font-size:50px"""">N = 3</p>","g",0,69,702,0,"agree",19,20,21,20,21,"32","Male","Is awesome experiment","Very Strong Agreement","Very Strong Agreement","Very Strong Agreement","Very Strong Agreement","Very Strong Agreement","Very Strong Agreement","Very Strong Agreement","Strong Agreement","Very Strong Agreement","Very Strong Agreement","Very Strong Agreement","Very Strong Agreement","Very Strong Agreement","Strong Agreement","Very Strong Agreement","Strong Agreement","Very Strong Agreement","Very Strong Agreement"
"66","A2AMVY0LYCBZFL:3WS1NTTKEZI2BE0D2HJ3BDNMNZMF05","1",3,6,3,"5","<p style=""font-size:100px""><b>v</b></p><p style=""position: absolute; top: 30px; right: 30px; text-align:right; font-size:50px"""">N = 3</p>","v",0,73,776,1,"agree",19,20,21,20,21,"32","Male","Is awesome experiment","Very Strong Agreement","Very Strong Agreement","Very Strong Agreement","Very Strong Agreement","Very Strong Agreement","Very Strong Agreement","Very Strong Agreement","Strong Agreement","Very Strong Agreement","Very Strong Agreement","Very Strong Agreement","Very Strong Agreement","Very Strong Agreement","Strong Agreement","Very Strong Agreement","Strong Agreement","Very Strong Agreement","Very Strong Agreement"
"67","A2AMVY0LYCBZFL:3WS1NTTKEZI2BE0D2HJ3BDNMNZMF05","1",3,7,3,"5","<p style=""font-size:100px""><b>D</b></p><p style=""position: absolute; top: 30px; right: 30px; text-align:right; font-size:50px"""">N = 3</p>","D",0,73,870,1,"agree",19,20,21,20,21,"32","Male","Is awesome experiment","Very Strong Agreement","Very Strong Agreement","Very Strong Agreement","Very Strong Agreement","Very Strong Agreement","Very Strong Agreement","Very Strong Agreement","Strong Agreement","Very Strong Agreement","Very Strong Agreement","Very Strong Agreement","Very Strong Agreement","Very Strong Agreement","Strong Agreement","Very Strong Agreement","Strong Agreement","Very Strong Agreement","Very Strong Agreement"
"68","A2AMVY0LYCBZFL:3WS1NTTKEZI2BE0D2HJ3BDNMNZMF05","1",3,8,3,"5","<p style=""font-size:100px""><b>g</b></p><p style=""position: absolute; top: 30px; right: 30px; text-align:right; font-size:50px"""">N = 3</p>","g",0,69,752,0,"agree",19,20,21,20,21,"32","Male","Is awesome experiment","Very Strong Agreement","Very Strong Agreement","Very Strong Agreement","Very Strong Agreement","Very Strong Agreement","Very Strong Agreement","Very Strong Agreement","Strong Agreement","Very Strong Agreement","Very Strong Agreement","Very Strong Agreement","Very Strong Agreement","Very Strong Agreement","Strong Agreement","Very Strong Agreement","Strong Agreement","Very Strong Agreement","Very Strong Agreement"
"69","A2AMVY0LYCBZFL:3WS1NTTKEZI2BE0D2HJ3BDNMNZMF05","1",3,9,3,"5","<p style=""font-size:100px""><b>v</b></p><p style=""position: absolute; top: 30px; right: 30px; text-align:right; font-size:50px"""">N = 3</p>","v",0,73,716,1,"agree",19,20,21,20,21,"32","Male","Is awesome experiment","Very Strong Agreement","Very Strong Agreement","Very Strong Agreement","Very Strong Agreement","Very Strong Agreement","Very Strong Agreement","Very Strong Agreement","Strong Agreement","Very Strong Agreement","Very Strong Agreement","Very Strong Agreement","Very Strong Agreement","Very Strong Agreement","Strong Agreement","Very Strong Agreement","Strong Agreement","Very Strong Agreement","Very Strong Agreement"
"70","A2AMVY0LYCBZFL:3WS1NTTKEZI2BE0D2HJ3BDNMNZMF05","1",3,10,3,"5","<p style=""font-size:100px""><b>g</b></p><p style=""position: absolute; top: 30px; right: 30px; text-align:right; font-size:50px"""">N = 3</p>","g",0,69,804,0,"agree",19,20,21,20,21,"32","Male","Is awesome experiment","Very Strong Agreement","Very Strong Agreement","Very Strong Agreement","Very Strong Agreement","Very Strong Agreement","Very Strong Agreement","Very Strong Agreement","Strong Agreement","Very Strong Agreement","Very Strong Agreement","Very Strong Agreement","Very Strong Agreement","Very Strong Agreement","Strong Agreement","Very Strong Agreement","Strong Agreement","Very Strong Agreement","Very Strong Agreement"
"71","A2AMVY0LYCBZFL:3WS1NTTKEZI2BE0D2HJ3BDNMNZMF05","1",3,11,3,"5","<p style=""font-size:100px""><b>g</b></p><p style=""position: absolute; top: 30px; right: 30px; text-align:right; font-size:50px"""">N = 3</p>","g",0,69,906,0,"agree",19,20,21,20,21,"32","Male","Is awesome experiment","Very Strong Agreement","Very Strong Agreement","Very Strong Agreement","Very Strong Agreement","Very Strong Agreement","Very Strong Agreement","Very Strong Agreement","Strong Agreement","Very Strong Agreement","Very Strong Agreement","Very Strong Agreement","Very Strong Agreement","Very Strong Agreement","Strong Agreement","Very Strong Agreement","Strong Agreement","Very Strong Agreement","Very Strong Agreement"
"72","A2AMVY0LYCBZFL:3WS1NTTKEZI2BE0D2HJ3BDNMNZMF05","1",3,12,3,"5","<p style=""font-size:100px""><b>p</b></p><p style=""position: absolute; top: 30px; right: 30px; text-align:right; font-size:50px"""">N = 3</p>","p",0,73,790,1,"agree",19,20,21,20,21,"32","Male","Is awesome experiment","Very Strong Agreement","Very Strong Agreement","Very Strong Agreement","Very Strong Agreement","Very Strong Agreement","Very Strong Agreement","Very Strong Agreement","Strong Agreement","Very Strong Agreement","Very Strong Agreement","Very Strong Agreement","Very Strong Agreement","Very Strong Agreement","Strong Agreement","Very Strong Agreement","Strong Agreement","Very Strong Agreement","Very Strong Agreement"
"73","A2AMVY0LYCBZFL:3WS1NTTKEZI2BE0D2HJ3BDNMNZMF05","1",4,1,3,"50","<p style=""font-size:100px""><b>v</b></p><p style=""position: absolute; top: 30px; right: 30px; text-align:right; font-size:50px"""">N = 3</p>","v",0,73,899,1,"agree",20,20,20,18,20,"32","Male","Is awesome experiment","Very Strong Agreement","Very Strong Agreement","Very Strong Agreement","Very Strong Agreement","Very Strong Agreement","Very Strong Agreement","Very Strong Agreement","Strong Agreement","Very Strong Agreement","Very Strong Agreement","Very Strong Agreement","Very Strong Agreement","Very Strong Agreement","Strong Agreement","Very Strong Agreement","Strong Agreement","Very Strong Agreement","Very Strong Agreement"
"74","A2AMVY0LYCBZFL:3WS1NTTKEZI2BE0D2HJ3BDNMNZMF05","1",4,2,3,"50","<p style=""font-size:100px""><b>P</b></p><p style=""position: absolute; top: 30px; right: 30px; text-align:right; font-size:50px"""">N = 3</p>","P",0,73,563,1,"agree",20,20,20,18,20,"32","Male","Is awesome experiment","Very Strong Agreement","Very Strong Agreement","Very Strong Agreement","Very Strong Agreement","Very Strong Agreement","Very Strong Agreement","Very Strong Agreement","Strong Agreement","Very Strong Agreement","Very Strong Agreement","Very Strong Agreement","Very Strong Agreement","Very Strong Agreement","Strong Agreement","Very Strong Agreement","Strong Agreement","Very Strong Agreement","Very Strong Agreement"
"75","A2AMVY0LYCBZFL:3WS1NTTKEZI2BE0D2HJ3BDNMNZMF05","1",4,3,3,"50","<p style=""font-size:100px""><b>t</b></p><p style=""position: absolute; top: 30px; right: 30px; text-align:right; font-size:50px"""">N = 3</p>","t",0,73,628,1,"agree",20,20,20,18,20,"32","Male","Is awesome experiment","Very Strong Agreement","Very Strong Agreement","Very Strong Agreement","Very Strong Agreement","Very Strong Agreement","Very Strong Agreement","Very Strong Agreement","Strong Agreement","Very Strong Agreement","Very Strong Agreement","Very Strong Agreement","Very Strong Agreement","Very Strong Agreement","Strong Agreement","Very Strong Agreement","Strong Agreement","Very Strong Agreement","Very Strong Agreement"
"76","A2AMVY0LYCBZFL:3WS1NTTKEZI2BE0D2HJ3BDNMNZMF05","1",4,4,3,"50","<p style=""font-size:100px""><b>v</b></p><p style=""position: absolute; top: 30px; right: 30px; text-align:right; font-size:50px"""">N = 3</p>","v",0,69,788,0,"agree",20,20,20,18,20,"32","Male","Is awesome experiment","Very Strong Agreement","Very Strong Agreement","Very Strong Agreement","Very Strong Agreement","Very Strong Agreement","Very Strong Agreement","Very Strong Agreement","Strong Agreement","Very Strong Agreement","Very Strong Agreement","Very Strong Agreement","Very Strong Agreement","Very Strong Agreement","Strong Agreement","Very Strong Agreement","Strong Agreement","Very Strong Agreement","Very Strong Agreement"
"77","A2AMVY0LYCBZFL:3WS1NTTKEZI2BE0D2HJ3BDNMNZMF05","1",4,5,3,"50","<p style=""font-size:100px""><b>t</b></p><p style=""position: absolute; top: 30px; right: 30px; text-align:right; font-size:50px"""">N = 3</p>","t",0,69,744,0,"agree",20,20,20,18,20,"32","Male","Is awesome experiment","Very Strong Agreement","Very Strong Agreement","Very Strong Agreement","Very Strong Agreement","Very Strong Agreement","Very Strong Agreement","Very Strong Agreement","Strong Agreement","Very Strong Agreement","Very Strong Agreement","Very Strong Agreement","Very Strong Agreement","Very Strong Agreement","Strong Agreement","Very Strong Agreement","Strong Agreement","Very Strong Agreement","Very Strong Agreement"
"78","A2AMVY0LYCBZFL:3WS1NTTKEZI2BE0D2HJ3BDNMNZMF05","1",4,6,3,"50","<p style=""font-size:100px""><b>d</b></p><p style=""position: absolute; top: 30px; right: 30px; text-align:right; font-size:50px"""">N = 3</p>","d",0,73,559,1,"agree",20,20,20,18,20,"32","Male","Is awesome experiment","Very Strong Agreement","Very Strong Agreement","Very Strong Agreement","Very Strong Agreement","Very Strong Agreement","Very Strong Agreement","Very Strong Agreement","Strong Agreement","Very Strong Agreement","Very Strong Agreement","Very Strong Agreement","Very Strong Agreement","Very Strong Agreement","Strong Agreement","Very Strong Agreement","Strong Agreement","Very Strong Agreement","Very Strong Agreement"
"79","A2AMVY0LYCBZFL:3WS1NTTKEZI2BE0D2HJ3BDNMNZMF05","1",4,7,3,"50","<p style=""font-size:100px""><b>p</b></p><p style=""position: absolute; top: 30px; right: 30px; text-align:right; font-size:50px"""">N = 3</p>","p",0,73,758,1,"agree",20,20,20,18,20,"32","Male","Is awesome experiment","Very Strong Agreement","Very Strong Agreement","Very Strong Agreement","Very Strong Agreement","Very Strong Agreement","Very Strong Agreement","Very Strong Agreement","Strong Agreement","Very Strong Agreement","Very Strong Agreement","Very Strong Agreement","Very Strong Agreement","Very Strong Agreement","Strong Agreement","Very Strong Agreement","Strong Agreement","Very Strong Agreement","Very Strong Agreement"
"80","A2AMVY0LYCBZFL:3WS1NTTKEZI2BE0D2HJ3BDNMNZMF05","1",4,8,3,"50","<p style=""font-size:100px""><b>t</b></p><p style=""position: absolute; top: 30px; right: 30px; text-align:right; font-size:50px"""">N = 3</p>","t",0,69,784,0,"agree",20,20,20,18,20,"32","Male","Is awesome experiment","Very Strong Agreement","Very Strong Agreement","Very Strong Agreement","Very Strong Agreement","Very Strong Agreement","Very Strong Agreement","Very Strong Agreement","Strong Agreement","Very Strong Agreement","Very Strong Agreement","Very Strong Agreement","Very Strong Agreement","Very Strong Agreement","Strong Agreement","Very Strong Agreement","Strong Agreement","Very Strong Agreement","Very Strong Agreement"
"81","A2AMVY0LYCBZFL:3WS1NTTKEZI2BE0D2HJ3BDNMNZMF05","1",4,9,3,"50","<p style=""font-size:100px""><b>T</b></p><p style=""position: absolute; top: 30px; right: 30px; text-align:right; font-size:50px"""">N = 3</p>","T",0,73,582,1,"agree",20,20,20,18,20,"32","Male","Is awesome experiment","Very Strong Agreement","Very Strong Agreement","Very Strong Agreement","Very Strong Agreement","Very Strong Agreement","Very Strong Agreement","Very Strong Agreement","Strong Agreement","Very Strong Agreement","Very Strong Agreement","Very Strong Agreement","Very Strong Agreement","Very Strong Agreement","Strong Agreement","Very Strong Agreement","Strong Agreement","Very Strong Agreement","Very Strong Agreement"
"82","A2AMVY0LYCBZFL:3WS1NTTKEZI2BE0D2HJ3BDNMNZMF05","1",4,10,3,"50","<p style=""font-size:100px""><b>p</b></p><p style=""position: absolute; top: 30px; right: 30px; text-align:right; font-size:50px"""">N = 3</p>","p",0,73,957,1,"agree",20,20,20,18,20,"32","Male","Is awesome experiment","Very Strong Agreement","Very Strong Agreement","Very Strong Agreement","Very Strong Agreement","Very Strong Agreement","Very Strong Agreement","Very Strong Agreement","Strong Agreement","Very Strong Agreement","Very Strong Agreement","Very Strong Agreement","Very Strong Agreement","Very Strong Agreement","Strong Agreement","Very Strong Agreement","Strong Agreement","Very Strong Agreement","Very Strong Agreement"
"83","A2AMVY0LYCBZFL:3WS1NTTKEZI2BE0D2HJ3BDNMNZMF05","1",4,11,3,"50","<p style=""font-size:100px""><b>t</b></p><p style=""position: absolute; top: 30px; right: 30px; text-align:right; font-size:50px"""">N = 3</p>","t",0,69,668,0,"agree",20,20,20,18,20,"32","Male","Is awesome experiment","Very Strong Agreement","Very Strong Agreement","Very Strong Agreement","Very Strong Agreement","Very Strong Agreement","Very Strong Agreement","Very Strong Agreement","Strong Agreement","Very Strong Agreement","Very Strong Agreement","Very Strong Agreement","Very Strong Agreement","Very Strong Agreement","Strong Agreement","Very Strong Agreement","Strong Agreement","Very Strong Agreement","Very Strong Agreement"
"84","A2AMVY0LYCBZFL:3WS1NTTKEZI2BE0D2HJ3BDNMNZMF05","1",4,12,3,"50","<p style=""font-size:100px""><b>p</b></p><p style=""position: absolute; top: 30px; right: 30px; text-align:right; font-size:50px"""">N = 3</p>","p",0,69,666,0,"agree",20,20,20,18,20,"32","Male","Is awesome experiment","Very Strong Agreement","Very Strong Agreement","Very Strong Agreement","Very Strong Agreement","Very Strong Agreement","Very Strong Agreement","Very Strong Agreement","Strong Agreement","Very Strong Agreement","Very Strong Agreement","Very Strong Agreement","Very Strong Agreement","Very Strong Agreement","Strong Agreement","Very Strong Agreement","Strong Agreement","Very Strong Agreement","Very Strong Agreement"
"85","A2AMVY0LYCBZFL:3WS1NTTKEZI2BE0D2HJ3BDNMNZMF05","1",5,1,2,"5","<p style=""font-size:100px""><b>B</b></p><p style=""position: absolute; top: 30px; right: 30px; text-align:right; font-size:50px"""">N = 2</p>","B",0,73,582,1,"agree",21,21,21,19,21,"32","Male","Is awesome experiment","Very Strong Agreement","Very Strong Agreement","Very Strong Agreement","Very Strong Agreement","Very Strong Agreement","Very Strong Agreement","Very Strong Agreement","Strong Agreement","Very Strong Agreement","Very Strong Agreement","Very Strong Agreement","Very Strong Agreement","Very Strong Agreement","Strong Agreement","Very Strong Agreement","Strong Agreement","Very Strong Agreement","Very Strong Agreement"
"86","A2AMVY0LYCBZFL:3WS1NTTKEZI2BE0D2HJ3BDNMNZMF05","1",5,2,2,"5","<p style=""font-size:100px""><b>D</b></p><p style=""position: absolute; top: 30px; right: 30px; text-align:right; font-size:50px"""">N = 2</p>","D",0,73,614,1,"agree",21,21,21,19,21,"32","Male","Is awesome experiment","Very Strong Agreement","Very Strong Agreement","Very Strong Agreement","Very Strong Agreement","Very Strong Agreement","Very Strong Agreement","Very Strong Agreement","Strong Agreement","Very Strong Agreement","Very Strong Agreement","Very Strong Agreement","Very Strong Agreement","Very Strong Agreement","Strong Agreement","Very Strong Agreement","Strong Agreement","Very Strong Agreement","Very Strong Agreement"
"87","A2AMVY0LYCBZFL:3WS1NTTKEZI2BE0D2HJ3BDNMNZMF05","1",5,3,2,"5","<p style=""font-size:100px""><b>B</b></p><p style=""position: absolute; top: 30px; right: 30px; text-align:right; font-size:50px"""">N = 2</p>","B",0,69,656,0,"agree",21,21,21,19,21,"32","Male","Is awesome experiment","Very Strong Agreement","Very Strong Agreement","Very Strong Agreement","Very Strong Agreement","Very Strong Agreement","Very Strong Agreement","Very Strong Agreement","Strong Agreement","Very Strong Agreement","Very Strong Agreement","Very Strong Agreement","Very Strong Agreement","Very Strong Agreement","Strong Agreement","Very Strong Agreement","Strong Agreement","Very Strong Agreement","Very Strong Agreement"
"88","A2AMVY0LYCBZFL:3WS1NTTKEZI2BE0D2HJ3BDNMNZMF05","1",5,4,2,"5","<p style=""font-size:100px""><b>v</b></p><p style=""position: absolute; top: 30px; right: 30px; text-align:right; font-size:50px"""">N = 2</p>","v",0,73,623,1,"agree",21,21,21,19,21,"32","Male","Is awesome experiment","Very Strong Agreement","Very Strong Agreement","Very Strong Agreement","Very Strong Agreement","Very Strong Agreement","Very Strong Agreement","Very Strong Agreement","Strong Agreement","Very Strong Agreement","Very Strong Agreement","Very Strong Agreement","Very Strong Agreement","Very Strong Agreement","Strong Agreement","Very Strong Agreement","Strong Agreement","Very Strong Agreement","Very Strong Agreement"
"89","A2AMVY0LYCBZFL:3WS1NTTKEZI2BE0D2HJ3BDNMNZMF05","1",5,5,2,"5","<p style=""font-size:100px""><b>G</b></p><p style=""position: absolute; top: 30px; right: 30px; text-align:right; font-size:50px"""">N = 2</p>","G",0,NA,NA,0,"agree",21,21,21,19,21,"32","Male","Is awesome experiment","Very Strong Agreement","Very Strong Agreement","Very Strong Agreement","Very Strong Agreement","Very Strong Agreement","Very Strong Agreement","Very Strong Agreement","Strong Agreement","Very Strong Agreement","Very Strong Agreement","Very Strong Agreement","Very Strong Agreement","Very Strong Agreement","Strong Agreement","Very Strong Agreement","Strong Agreement","Very Strong Agreement","Very Strong Agreement"
"90","A2AMVY0LYCBZFL:3WS1NTTKEZI2BE0D2HJ3BDNMNZMF05","1",5,6,2,"5","<p style=""font-size:100px""><b>D</b></p><p style=""position: absolute; top: 30px; right: 30px; text-align:right; font-size:50px"""">N = 2</p>","D",0,73,4,1,"agree",21,21,21,19,21,"32","Male","Is awesome experiment","Very Strong Agreement","Very Strong Agreement","Very Strong Agreement","Very Strong Agreement","Very Strong Agreement","Very Strong Agreement","Very Strong Agreement","Strong Agreement","Very Strong Agreement","Very Strong Agreement","Very Strong Agreement","Very Strong Agreement","Very Strong Agreement","Strong Agreement","Very Strong Agreement","Strong Agreement","Very Strong Agreement","Very Strong Agreement"
"91","A2AMVY0LYCBZFL:3WS1NTTKEZI2BE0D2HJ3BDNMNZMF05","1",5,7,2,"5","<p style=""font-size:100px""><b>T</b></p><p style=""position: absolute; top: 30px; right: 30px; text-align:right; font-size:50px"""">N = 2</p>","T",0,73,778,1,"agree",21,21,21,19,21,"32","Male","Is awesome experiment","Very Strong Agreement","Very Strong Agreement","Very Strong Agreement","Very Strong Agreement","Very Strong Agreement","Very Strong Agreement","Very Strong Agreement","Strong Agreement","Very Strong Agreement","Very Strong Agreement","Very Strong Agreement","Very Strong Agreement","Very Strong Agreement","Strong Agreement","Very Strong Agreement","Strong Agreement","Very Strong Agreement","Very Strong Agreement"
"92","A2AMVY0LYCBZFL:3WS1NTTKEZI2BE0D2HJ3BDNMNZMF05","1",5,8,2,"5","<p style=""font-size:100px""><b>B</b></p><p style=""position: absolute; top: 30px; right: 30px; text-align:right; font-size:50px"""">N = 2</p>","B",0,73,759,1,"agree",21,21,21,19,21,"32","Male","Is awesome experiment","Very Strong Agreement","Very Strong Agreement","Very Strong Agreement","Very Strong Agreement","Very Strong Agreement","Very Strong Agreement","Very Strong Agreement","Strong Agreement","Very Strong Agreement","Very Strong Agreement","Very Strong Agreement","Very Strong Agreement","Very Strong Agreement","Strong Agreement","Very Strong Agreement","Strong Agreement","Very Strong Agreement","Very Strong Agreement"
"93","A2AMVY0LYCBZFL:3WS1NTTKEZI2BE0D2HJ3BDNMNZMF05","1",5,9,2,"5","<p style=""font-size:100px""><b>d</b></p><p style=""position: absolute; top: 30px; right: 30px; text-align:right; font-size:50px"""">N = 2</p>","d",0,73,595,1,"agree",21,21,21,19,21,"32","Male","Is awesome experiment","Very Strong Agreement","Very Strong Agreement","Very Strong Agreement","Very Strong Agreement","Very Strong Agreement","Very Strong Agreement","Very Strong Agreement","Strong Agreement","Very Strong Agreement","Very Strong Agreement","Very Strong Agreement","Very Strong Agreement","Very Strong Agreement","Strong Agreement","Very Strong Agreement","Strong Agreement","Very Strong Agreement","Very Strong Agreement"
"94","A2AMVY0LYCBZFL:3WS1NTTKEZI2BE0D2HJ3BDNMNZMF05","1",5,10,2,"5","<p style=""font-size:100px""><b>B</b></p><p style=""position: absolute; top: 30px; right: 30px; text-align:right; font-size:50px"""">N = 2</p>","B",0,NA,NA,0,"agree",21,21,21,19,21,"32","Male","Is awesome experiment","Very Strong Agreement","Very Strong Agreement","Very Strong Agreement","Very Strong Agreement","Very Strong Agreement","Very Strong Agreement","Very Strong Agreement","Strong Agreement","Very Strong Agreement","Very Strong Agreement","Very Strong Agreement","Very Strong Agreement","Very Strong Agreement","Strong Agreement","Very Strong Agreement","Strong Agreement","Very Strong Agreement","Very Strong Agreement"
"95","A2AMVY0LYCBZFL:3WS1NTTKEZI2BE0D2HJ3BDNMNZMF05","1",5,11,2,"5","<p style=""font-size:100px""><b>d</b></p><p style=""position: absolute; top: 30px; right: 30px; text-align:right; font-size:50px"""">N = 2</p>","d",0,69,891,0,"agree",21,21,21,19,21,"32","Male","Is awesome experiment","Very Strong Agreement","Very Strong Agreement","Very Strong Agreement","Very Strong Agreement","Very Strong Agreement","Very Strong Agreement","Very Strong Agreement","Strong Agreement","Very Strong Agreement","Very Strong Agreement","Very Strong Agreement","Very Strong Agreement","Very Strong Agreement","Strong Agreement","Very Strong Agreement","Strong Agreement","Very Strong Agreement","Very Strong Agreement"
"96","A2AMVY0LYCBZFL:3WS1NTTKEZI2BE0D2HJ3BDNMNZMF05","1",5,12,2,"5","<p style=""font-size:100px""><b>B</b></p><p style=""position: absolute; top: 30px; right: 30px; text-align:right; font-size:50px"""">N = 2</p>","B",0,NA,NA,0,"agree",21,21,21,19,21,"32","Male","Is awesome experiment","Very Strong Agreement","Very Strong Agreement","Very Strong Agreement","Very Strong Agreement","Very Strong Agreement","Very Strong Agreement","Very Strong Agreement","Strong Agreement","Very Strong Agreement","Very Strong Agreement","Very Strong Agreement","Very Strong Agreement","Very Strong Agreement","Strong Agreement","Very Strong Agreement","Strong Agreement","Very Strong Agreement","Very Strong Agreement"
"97","A2AMVY0LYCBZFL:3WS1NTTKEZI2BE0D2HJ3BDNMNZMF05","1",6,1,1,"5","<p style=""font-size:100px""><b>p</b></p><p style=""position: absolute; top: 30px; right: 30px; text-align:right; font-size:50px"""">N = 1</p>","p",0,73,796,1,"agree",19,19,20,21,20,"32","Male","Is awesome experiment","Very Strong Agreement","Very Strong Agreement","Very Strong Agreement","Very Strong Agreement","Very Strong Agreement","Very Strong Agreement","Very Strong Agreement","Strong Agreement","Very Strong Agreement","Very Strong Agreement","Very Strong Agreement","Very Strong Agreement","Very Strong Agreement","Strong Agreement","Very Strong Agreement","Strong Agreement","Very Strong Agreement","Very Strong Agreement"
"98","A2AMVY0LYCBZFL:3WS1NTTKEZI2BE0D2HJ3BDNMNZMF05","1",6,2,1,"5","<p style=""font-size:100px""><b>B</b></p><p style=""position: absolute; top: 30px; right: 30px; text-align:right; font-size:50px"""">N = 1</p>","B",0,73,474,1,"agree",19,19,20,21,20,"32","Male","Is awesome experiment","Very Strong Agreement","Very Strong Agreement","Very Strong Agreement","Very Strong Agreement","Very Strong Agreement","Very Strong Agreement","Very Strong Agreement","Strong Agreement","Very Strong Agreement","Very Strong Agreement","Very Strong Agreement","Very Strong Agreement","Very Strong Agreement","Strong Agreement","Very Strong Agreement","Strong Agreement","Very Strong Agreement","Very Strong Agreement"
"99","A2AMVY0LYCBZFL:3WS1NTTKEZI2BE0D2HJ3BDNMNZMF05","1",6,3,1,"5","<p style=""font-size:100px""><b>B</b></p><p style=""position: absolute; top: 30px; right: 30px; text-align:right; font-size:50px"""">N = 1</p>","B",0,NA,NA,0,"agree",19,19,20,21,20,"32","Male","Is awesome experiment","Very Strong Agreement","Very Strong Agreement","Very Strong Agreement","Very Strong Agreement","Very Strong Agreement","Very Strong Agreement","Very Strong Agreement","Strong Agreement","Very Strong Agreement","Very Strong Agreement","Very Strong Agreement","Very Strong Agreement","Very Strong Agreement","Strong Agreement","Very Strong Agreement","Strong Agreement","Very Strong Agreement","Very Strong Agreement"
"100","A2AMVY0LYCBZFL:3WS1NTTKEZI2BE0D2HJ3BDNMNZMF05","1",6,4,1,"5","<p style=""font-size:100px""><b>B</b></p><p style=""position: absolute; top: 30px; right: 30px; text-align:right; font-size:50px"""">N = 1</p>","B",0,NA,NA,0,"agree",19,19,20,21,20,"32","Male","Is awesome experiment","Very Strong Agreement","Very Strong Agreement","Very Strong Agreement","Very Strong Agreement","Very Strong Agreement","Very Strong Agreement","Very Strong Agreement","Strong Agreement","Very Strong Agreement","Very Strong Agreement","Very Strong Agreement","Very Strong Agreement","Very Strong Agreement","Strong Agreement","Very Strong Agreement","Strong Agreement","Very Strong Agreement","Very Strong Agreement"
"101","A2AMVY0LYCBZFL:3WS1NTTKEZI2BE0D2HJ3BDNMNZMF05","1",6,5,1,"5","<p style=""font-size:100px""><b>D</b></p><p style=""position: absolute; top: 30px; right: 30px; text-align:right; font-size:50px"""">N = 1</p>","D",0,NA,NA,0,"agree",19,19,20,21,20,"32","Male","Is awesome experiment","Very Strong Agreement","Very Strong Agreement","Very Strong Agreement","Very Strong Agreement","Very Strong Agreement","Very Strong Agreement","Very Strong Agreement","Strong Agreement","Very Strong Agreement","Very Strong Agreement","Very Strong Agreement","Very Strong Agreement","Very Strong Agreement","Strong Agreement","Very Strong Agreement","Strong Agreement","Very Strong Agreement","Very Strong Agreement"
"102","A2AMVY0LYCBZFL:3WS1NTTKEZI2BE0D2HJ3BDNMNZMF05","1",6,6,1,"5","<p style=""font-size:100px""><b>p</b></p><p style=""position: absolute; top: 30px; right: 30px; text-align:right; font-size:50px"""">N = 1</p>","p",0,73,165,1,"agree",19,19,20,21,20,"32","Male","Is awesome experiment","Very Strong Agreement","Very Strong Agreement","Very Strong Agreement","Very Strong Agreement","Very Strong Agreement","Very Strong Agreement","Very Strong Agreement","Strong Agreement","Very Strong Agreement","Very Strong Agreement","Very Strong Agreement","Very Strong Agreement","Very Strong Agreement","Strong Agreement","Very Strong Agreement","Strong Agreement","Very Strong Agreement","Very Strong Agreement"
"103","A2AMVY0LYCBZFL:3WS1NTTKEZI2BE0D2HJ3BDNMNZMF05","1",6,7,1,"5","<p style=""font-size:100px""><b>p</b></p><p style=""position: absolute; top: 30px; right: 30px; text-align:right; font-size:50px"""">N = 1</p>","p",0,NA,NA,0,"agree",19,19,20,21,20,"32","Male","Is awesome experiment","Very Strong Agreement","Very Strong Agreement","Very Strong Agreement","Very Strong Agreement","Very Strong Agreement","Very Strong Agreement","Very Strong Agreement","Strong Agreement","Very Strong Agreement","Very Strong Agreement","Very Strong Agreement","Very Strong Agreement","Very Strong Agreement","Strong Agreement","Very Strong Agreement","Strong Agreement","Very Strong Agreement","Very Strong Agreement"
"104","A2AMVY0LYCBZFL:3WS1NTTKEZI2BE0D2HJ3BDNMNZMF05","1",6,8,1,"5","<p style=""font-size:100px""><b>g</b></p><p style=""position: absolute; top: 30px; right: 30px; text-align:right; font-size:50px"""">N = 1</p>","g",0,NA,NA,0,"agree",19,19,20,21,20,"32","Male","Is awesome experiment","Very Strong Agreement","Very Strong Agreement","Very Strong Agreement","Very Strong Agreement","Very Strong Agreement","Very Strong Agreement","Very Strong Agreement","Strong Agreement","Very Strong Agreement","Very Strong Agreement","Very Strong Agreement","Very Strong Agreement","Very Strong Agreement","Strong Agreement","Very Strong Agreement","Strong Agreement","Very Strong Agreement","Very Strong Agreement"
"105","A2AMVY0LYCBZFL:3WS1NTTKEZI2BE0D2HJ3BDNMNZMF05","1",6,9,1,"5","<p style=""font-size:100px""><b>g</b></p><p style=""position: absolute; top: 30px; right: 30px; text-align:right; font-size:50px"""">N = 1</p>","g",0,NA,NA,0,"agree",19,19,20,21,20,"32","Male","Is awesome experiment","Very Strong Agreement","Very Strong Agreement","Very Strong Agreement","Very Strong Agreement","Very Strong Agreement","Very Strong Agreement","Very Strong Agreement","Strong Agreement","Very Strong Agreement","Very Strong Agreement","Very Strong Agreement","Very Strong Agreement","Very Strong Agreement","Strong Agreement","Very Strong Agreement","Strong Agreement","Very Strong Agreement","Very Strong Agreement"
"106","A2AMVY0LYCBZFL:3WS1NTTKEZI2BE0D2HJ3BDNMNZMF05","1",6,10,1,"5","<p style=""font-size:100px""><b>v</b></p><p style=""position: absolute; top: 30px; right: 30px; text-align:right; font-size:50px"""">N = 1</p>","v",0,NA,NA,0,"agree",19,19,20,21,20,"32","Male","Is awesome experiment","Very Strong Agreement","Very Strong Agreement","Very Strong Agreement","Very Strong Agreement","Very Strong Agreement","Very Strong Agreement","Very Strong Agreement","Strong Agreement","Very Strong Agreement","Very Strong Agreement","Very Strong Agreement","Very Strong Agreement","Very Strong Agreement","Strong Agreement","Very Strong Agreement","Strong Agreement","Very Strong Agreement","Very Strong Agreement"
"107","A2AMVY0LYCBZFL:3WS1NTTKEZI2BE0D2HJ3BDNMNZMF05","1",6,11,1,"5","<p style=""font-size:100px""><b>B</b></p><p style=""position: absolute; top: 30px; right: 30px; text-align:right; font-size:50px"""">N = 1</p>","B",0,73,690,1,"agree",19,19,20,21,20,"32","Male","Is awesome experiment","Very Strong Agreement","Very Strong Agreement","Very Strong Agreement","Very Strong Agreement","Very Strong Agreement","Very Strong Agreement","Very Strong Agreement","Strong Agreement","Very Strong Agreement","Very Strong Agreement","Very Strong Agreement","Very Strong Agreement","Very Strong Agreement","Strong Agreement","Very Strong Agreement","Strong Agreement","Very Strong Agreement","Very Strong Agreement"
"108","A2AMVY0LYCBZFL:3WS1NTTKEZI2BE0D2HJ3BDNMNZMF05","1",6,12,1,"5","<p style=""font-size:100px""><b>d</b></p><p style=""position: absolute; top: 30px; right: 30px; text-align:right; font-size:50px"""">N = 1</p>","d",0,73,966,1,"agree",19,19,20,21,20,"32","Male","Is awesome experiment","Very Strong Agreement","Very Strong Agreement","Very Strong Agreement","Very Strong Agreement","Very Strong Agreement","Very Strong Agreement","Very Strong Agreement","Strong Agreement","Very Strong Agreement","Very Strong Agreement","Very Strong Agreement","Very Strong Agreement","Very Strong Agreement","Strong Agreement","Very Strong Agreement","Strong Agreement","Very Strong Agreement","Very Strong Agreement"
"109","A2AMVY0LYCBZFL:3WS1NTTKEZI2BE0D2HJ3BDNMNZMF05","2",7,1,3,"50","<p style=""font-size:100px""><b>D</b></p><p style=""position: absolute; top: 30px; right: 30px; text-align:right; font-size:50px"""">N = 3</p>","D",0,73,729,1,"agree",19,20,21,21,17,"32","Male","Is awesome experiment","Very Strong Agreement","Very Strong Agreement","Very Strong Agreement","Very Strong Agreement","Very Strong Agreement","Very Strong Agreement","Very Strong Agreement","Strong Agreement","Very Strong Agreement","Very Strong Agreement","Very Strong Agreement","Very Strong Agreement","Very Strong Agreement","Strong Agreement","Very Strong Agreement","Strong Agreement","Very Strong Agreement","Very Strong Agreement"
"110","A2AMVY0LYCBZFL:3WS1NTTKEZI2BE0D2HJ3BDNMNZMF05","2",7,2,3,"50","<p style=""font-size:100px""><b>G</b></p><p style=""position: absolute; top: 30px; right: 30px; text-align:right; font-size:50px"""">N = 3</p>","G",0,73,485,1,"agree",19,20,21,21,17,"32","Male","Is awesome experiment","Very Strong Agreement","Very Strong Agreement","Very Strong Agreement","Very Strong Agreement","Very Strong Agreement","Very Strong Agreement","Very Strong Agreement","Strong Agreement","Very Strong Agreement","Very Strong Agreement","Very Strong Agreement","Very Strong Agreement","Very Strong Agreement","Strong Agreement","Very Strong Agreement","Strong Agreement","Very Strong Agreement","Very Strong Agreement"
"111","A2AMVY0LYCBZFL:3WS1NTTKEZI2BE0D2HJ3BDNMNZMF05","2",7,3,3,"50","<p style=""font-size:100px""><b>V</b></p><p style=""position: absolute; top: 30px; right: 30px; text-align:right; font-size:50px"""">N = 3</p>","V",0,73,537,1,"agree",19,20,21,21,17,"32","Male","Is awesome experiment","Very Strong Agreement","Very Strong Agreement","Very Strong Agreement","Very Strong Agreement","Very Strong Agreement","Very Strong Agreement","Very Strong Agreement","Strong Agreement","Very Strong Agreement","Very Strong Agreement","Very Strong Agreement","Very Strong Agreement","Very Strong Agreement","Strong Agreement","Very Strong Agreement","Strong Agreement","Very Strong Agreement","Very Strong Agreement"
"112","A2AMVY0LYCBZFL:3WS1NTTKEZI2BE0D2HJ3BDNMNZMF05","2",7,4,3,"50","<p style=""font-size:100px""><b>D</b></p><p style=""position: absolute; top: 30px; right: 30px; text-align:right; font-size:50px"""">N = 3</p>","D",0,73,567,1,"agree",19,20,21,21,17,"32","Male","Is awesome experiment","Very Strong Agreement","Very Strong Agreement","Very Strong Agreement","Very Strong Agreement","Very Strong Agreement","Very Strong Agreement","Very Strong Agreement","Strong Agreement","Very Strong Agreement","Very Strong Agreement","Very Strong Agreement","Very Strong Agreement","Very Strong Agreement","Strong Agreement","Very Strong Agreement","Strong Agreement","Very Strong Agreement","Very Strong Agreement"
"113","A2AMVY0LYCBZFL:3WS1NTTKEZI2BE0D2HJ3BDNMNZMF05","2",7,5,3,"50","<p style=""font-size:100px""><b>G</b></p><p style=""position: absolute; top: 30px; right: 30px; text-align:right; font-size:50px"""">N = 3</p>","G",0,73,913,1,"agree",19,20,21,21,17,"32","Male","Is awesome experiment","Very Strong Agreement","Very Strong Agreement","Very Strong Agreement","Very Strong Agreement","Very Strong Agreement","Very Strong Agreement","Very Strong Agreement","Strong Agreement","Very Strong Agreement","Very Strong Agreement","Very Strong Agreement","Very Strong Agreement","Very Strong Agreement","Strong Agreement","Very Strong Agreement","Strong Agreement","Very Strong Agreement","Very Strong Agreement"
"114","A2AMVY0LYCBZFL:3WS1NTTKEZI2BE0D2HJ3BDNMNZMF05","2",7,6,3,"50","<p style=""font-size:100px""><b>g</b></p><p style=""position: absolute; top: 30px; right: 30px; text-align:right; font-size:50px"""">N = 3</p>","g",0,69,730,0,"agree",19,20,21,21,17,"32","Male","Is awesome experiment","Very Strong Agreement","Very Strong Agreement","Very Strong Agreement","Very Strong Agreement","Very Strong Agreement","Very Strong Agreement","Very Strong Agreement","Strong Agreement","Very Strong Agreement","Very Strong Agreement","Very Strong Agreement","Very Strong Agreement","Very Strong Agreement","Strong Agreement","Very Strong Agreement","Strong Agreement","Very Strong Agreement","Very Strong Agreement"
"115","A2AMVY0LYCBZFL:3WS1NTTKEZI2BE0D2HJ3BDNMNZMF05","2",7,7,3,"50","<p style=""font-size:100px""><b>T</b></p><p style=""position: absolute; top: 30px; right: 30px; text-align:right; font-size:50px"""">N = 3</p>","T",0,73,552,1,"agree",19,20,21,21,17,"32","Male","Is awesome experiment","Very Strong Agreement","Very Strong Agreement","Very Strong Agreement","Very Strong Agreement","Very Strong Agreement","Very Strong Agreement","Very Strong Agreement","Strong Agreement","Very Strong Agreement","Very Strong Agreement","Very Strong Agreement","Very Strong Agreement","Very Strong Agreement","Strong Agreement","Very Strong Agreement","Strong Agreement","Very Strong Agreement","Very Strong Agreement"
"116","A2AMVY0LYCBZFL:3WS1NTTKEZI2BE0D2HJ3BDNMNZMF05","2",7,8,3,"50","<p style=""font-size:100px""><b>B</b></p><p style=""position: absolute; top: 30px; right: 30px; text-align:right; font-size:50px"""">N = 3</p>","B",0,73,608,1,"agree",19,20,21,21,17,"32","Male","Is awesome experiment","Very Strong Agreement","Very Strong Agreement","Very Strong Agreement","Very Strong Agreement","Very Strong Agreement","Very Strong Agreement","Very Strong Agreement","Strong Agreement","Very Strong Agreement","Very Strong Agreement","Very Strong Agreement","Very Strong Agreement","Very Strong Agreement","Strong Agreement","Very Strong Agreement","Strong Agreement","Very Strong Agreement","Very Strong Agreement"
"117","A2AMVY0LYCBZFL:3WS1NTTKEZI2BE0D2HJ3BDNMNZMF05","2",7,9,3,"50","<p style=""font-size:100px""><b>D</b></p><p style=""position: absolute; top: 30px; right: 30px; text-align:right; font-size:50px"""">N = 3</p>","D",0,73,592,1,"agree",19,20,21,21,17,"32","Male","Is awesome experiment","Very Strong Agreement","Very Strong Agreement","Very Strong Agreement","Very Strong Agreement","Very Strong Agreement","Very Strong Agreement","Very Strong Agreement","Strong Agreement","Very Strong Agreement","Very Strong Agreement","Very Strong Agreement","Very Strong Agreement","Very Strong Agreement","Strong Agreement","Very Strong Agreement","Strong Agreement","Very Strong Agreement","Very Strong Agreement"
"118","A2AMVY0LYCBZFL:3WS1NTTKEZI2BE0D2HJ3BDNMNZMF05","2",7,10,3,"50","<p style=""font-size:100px""><b>V</b></p><p style=""position: absolute; top: 30px; right: 30px; text-align:right; font-size:50px"""">N = 3</p>","V",0,73,588,1,"agree",19,20,21,21,17,"32","Male","Is awesome experiment","Very Strong Agreement","Very Strong Agreement","Very Strong Agreement","Very Strong Agreement","Very Strong Agreement","Very Strong Agreement","Very Strong Agreement","Strong Agreement","Very Strong Agreement","Very Strong Agreement","Very Strong Agreement","Very Strong Agreement","Very Strong Agreement","Strong Agreement","Very Strong Agreement","Strong Agreement","Very Strong Agreement","Very Strong Agreement"
"119","A2AMVY0LYCBZFL:3WS1NTTKEZI2BE0D2HJ3BDNMNZMF05","2",7,11,3,"50","<p style=""font-size:100px""><b>B</b></p><p style=""position: absolute; top: 30px; right: 30px; text-align:right; font-size:50px"""">N = 3</p>","B",0,69,594,0,"agree",19,20,21,21,17,"32","Male","Is awesome experiment","Very Strong Agreement","Very Strong Agreement","Very Strong Agreement","Very Strong Agreement","Very Strong Agreement","Very Strong Agreement","Very Strong Agreement","Strong Agreement","Very Strong Agreement","Very Strong Agreement","Very Strong Agreement","Very Strong Agreement","Very Strong Agreement","Strong Agreement","Very Strong Agreement","Strong Agreement","Very Strong Agreement","Very Strong Agreement"
"120","A2AMVY0LYCBZFL:3WS1NTTKEZI2BE0D2HJ3BDNMNZMF05","2",7,12,3,"50","<p style=""font-size:100px""><b>D</b></p><p style=""position: absolute; top: 30px; right: 30px; text-align:right; font-size:50px"""">N = 3</p>","D",0,69,957,0,"agree",19,20,21,21,17,"32","Male","Is awesome experiment","Very Strong Agreement","Very Strong Agreement","Very Strong Agreement","Very Strong Agreement","Very Strong Agreement","Very Strong Agreement","Very Strong Agreement","Strong Agreement","Very Strong Agreement","Very Strong Agreement","Very Strong Agreement","Very Strong Agreement","Very Strong Agreement","Strong Agreement","Very Strong Agreement","Strong Agreement","Very Strong Agreement","Very Strong Agreement"
"121","A2AMVY0LYCBZFL:3WS1NTTKEZI2BE0D2HJ3BDNMNZMF05","2",8,1,1,"50","<p style=""font-size:100px""><b>g</b></p><p style=""position: absolute; top: 30px; right: 30px; text-align:right; font-size:50px"""">N = 1</p>","g",0,73,871,1,"agree",20,18,20,21,19,"32","Male","Is awesome experiment","Very Strong Agreement","Very Strong Agreement","Very Strong Agreement","Very Strong Agreement","Very Strong Agreement","Very Strong Agreement","Very Strong Agreement","Strong Agreement","Very Strong Agreement","Very Strong Agreement","Very Strong Agreement","Very Strong Agreement","Very Strong Agreement","Strong Agreement","Very Strong Agreement","Strong Agreement","Very Strong Agreement","Very Strong Agreement"
"122","A2AMVY0LYCBZFL:3WS1NTTKEZI2BE0D2HJ3BDNMNZMF05","2",8,2,1,"50","<p style=""font-size:100px""><b>V</b></p><p style=""position: absolute; top: 30px; right: 30px; text-align:right; font-size:50px"""">N = 1</p>","V",0,73,656,1,"agree",20,18,20,21,19,"32","Male","Is awesome experiment","Very Strong Agreement","Very Strong Agreement","Very Strong Agreement","Very Strong Agreement","Very Strong Agreement","Very Strong Agreement","Very Strong Agreement","Strong Agreement","Very Strong Agreement","Very Strong Agreement","Very Strong Agreement","Very Strong Agreement","Very Strong Agreement","Strong Agreement","Very Strong Agreement","Strong Agreement","Very Strong Agreement","Very Strong Agreement"
"123","A2AMVY0LYCBZFL:3WS1NTTKEZI2BE0D2HJ3BDNMNZMF05","2",8,3,1,"50","<p style=""font-size:100px""><b>d</b></p><p style=""position: absolute; top: 30px; right: 30px; text-align:right; font-size:50px"""">N = 1</p>","d",0,73,692,1,"agree",20,18,20,21,19,"32","Male","Is awesome experiment","Very Strong Agreement","Very Strong Agreement","Very Strong Agreement","Very Strong Agreement","Very Strong Agreement","Very Strong Agreement","Very Strong Agreement","Strong Agreement","Very Strong Agreement","Very Strong Agreement","Very Strong Agreement","Very Strong Agreement","Very Strong Agreement","Strong Agreement","Very Strong Agreement","Strong Agreement","Very Strong Agreement","Very Strong Agreement"
"124","A2AMVY0LYCBZFL:3WS1NTTKEZI2BE0D2HJ3BDNMNZMF05","2",8,4,1,"50","<p style=""font-size:100px""><b>d</b></p><p style=""position: absolute; top: 30px; right: 30px; text-align:right; font-size:50px"""">N = 1</p>","d",0,69,733,0,"agree",20,18,20,21,19,"32","Male","Is awesome experiment","Very Strong Agreement","Very Strong Agreement","Very Strong Agreement","Very Strong Agreement","Very Strong Agreement","Very Strong Agreement","Very Strong Agreement","Strong Agreement","Very Strong Agreement","Very Strong Agreement","Very Strong Agreement","Very Strong Agreement","Very Strong Agreement","Strong Agreement","Very Strong Agreement","Strong Agreement","Very Strong Agreement","Very Strong Agreement"
"125","A2AMVY0LYCBZFL:3WS1NTTKEZI2BE0D2HJ3BDNMNZMF05","2",8,5,1,"50","<p style=""font-size:100px""><b>d</b></p><p style=""position: absolute; top: 30px; right: 30px; text-align:right; font-size:50px"""">N = 1</p>","d",0,69,612,0,"agree",20,18,20,21,19,"32","Male","Is awesome experiment","Very Strong Agreement","Very Strong Agreement","Very Strong Agreement","Very Strong Agreement","Very Strong Agreement","Very Strong Agreement","Very Strong Agreement","Strong Agreement","Very Strong Agreement","Very Strong Agreement","Very Strong Agreement","Very Strong Agreement","Very Strong Agreement","Strong Agreement","Very Strong Agreement","Strong Agreement","Very Strong Agreement","Very Strong Agreement"
"126","A2AMVY0LYCBZFL:3WS1NTTKEZI2BE0D2HJ3BDNMNZMF05","2",8,6,1,"50","<p style=""font-size:100px""><b>B</b></p><p style=""position: absolute; top: 30px; right: 30px; text-align:right; font-size:50px"""">N = 1</p>","B",0,73,713,1,"agree",20,18,20,21,19,"32","Male","Is awesome experiment","Very Strong Agreement","Very Strong Agreement","Very Strong Agreement","Very Strong Agreement","Very Strong Agreement","Very Strong Agreement","Very Strong Agreement","Strong Agreement","Very Strong Agreement","Very Strong Agreement","Very Strong Agreement","Very Strong Agreement","Very Strong Agreement","Strong Agreement","Very Strong Agreement","Strong Agreement","Very Strong Agreement","Very Strong Agreement"
"127","A2AMVY0LYCBZFL:3WS1NTTKEZI2BE0D2HJ3BDNMNZMF05","2",8,7,1,"50","<p style=""font-size:100px""><b>B</b></p><p style=""position: absolute; top: 30px; right: 30px; text-align:right; font-size:50px"""">N = 1</p>","B",0,NA,NA,0,"agree",20,18,20,21,19,"32","Male","Is awesome experiment","Very Strong Agreement","Very Strong Agreement","Very Strong Agreement","Very Strong Agreement","Very Strong Agreement","Very Strong Agreement","Very Strong Agreement","Strong Agreement","Very Strong Agreement","Very Strong Agreement","Very Strong Agreement","Very Strong Agreement","Very Strong Agreement","Strong Agreement","Very Strong Agreement","Strong Agreement","Very Strong Agreement","Very Strong Agreement"
"128","A2AMVY0LYCBZFL:3WS1NTTKEZI2BE0D2HJ3BDNMNZMF05","2",8,8,1,"50","<p style=""font-size:100px""><b>v</b></p><p style=""position: absolute; top: 30px; right: 30px; text-align:right; font-size:50px"""">N = 1</p>","v",0,69,110,0,"agree",20,18,20,21,19,"32","Male","Is awesome experiment","Very Strong Agreement","Very Strong Agreement","Very Strong Agreement","Very Strong Agreement","Very Strong Agreement","Very Strong Agreement","Very Strong Agreement","Strong Agreement","Very Strong Agreement","Very Strong Agreement","Very Strong Agreement","Very Strong Agreement","Very Strong Agreement","Strong Agreement","Very Strong Agreement","Strong Agreement","Very Strong Agreement","Very Strong Agreement"
"129","A2AMVY0LYCBZFL:3WS1NTTKEZI2BE0D2HJ3BDNMNZMF05","2",8,9,1,"50","<p style=""font-size:100px""><b>G</b></p><p style=""position: absolute; top: 30px; right: 30px; text-align:right; font-size:50px"""">N = 1</p>","G",0,73,646,1,"agree",20,18,20,21,19,"32","Male","Is awesome experiment","Very Strong Agreement","Very Strong Agreement","Very Strong Agreement","Very Strong Agreement","Very Strong Agreement","Very Strong Agreement","Very Strong Agreement","Strong Agreement","Very Strong Agreement","Very Strong Agreement","Very Strong Agreement","Very Strong Agreement","Very Strong Agreement","Strong Agreement","Very Strong Agreement","Strong Agreement","Very Strong Agreement","Very Strong Agreement"
"130","A2AMVY0LYCBZFL:3WS1NTTKEZI2BE0D2HJ3BDNMNZMF05","2",8,10,1,"50","<p style=""font-size:100px""><b>G</b></p><p style=""position: absolute; top: 30px; right: 30px; text-align:right; font-size:50px"""">N = 1</p>","G",0,NA,NA,0,"agree",20,18,20,21,19,"32","Male","Is awesome experiment","Very Strong Agreement","Very Strong Agreement","Very Strong Agreement","Very Strong Agreement","Very Strong Agreement","Very Strong Agreement","Very Strong Agreement","Strong Agreement","Very Strong Agreement","Very Strong Agreement","Very Strong Agreement","Very Strong Agreement","Very Strong Agreement","Strong Agreement","Very Strong Agreement","Strong Agreement","Very Strong Agreement","Very Strong Agreement"
"131","A2AMVY0LYCBZFL:3WS1NTTKEZI2BE0D2HJ3BDNMNZMF05","2",8,11,1,"50","<p style=""font-size:100px""><b>P</b></p><p style=""position: absolute; top: 30px; right: 30px; text-align:right; font-size:50px"""">N = 1</p>","P",0,73,795,1,"agree",20,18,20,21,19,"32","Male","Is awesome experiment","Very Strong Agreement","Very Strong Agreement","Very Strong Agreement","Very Strong Agreement","Very Strong Agreement","Very Strong Agreement","Very Strong Agreement","Strong Agreement","Very Strong Agreement","Very Strong Agreement","Very Strong Agreement","Very Strong Agreement","Very Strong Agreement","Strong Agreement","Very Strong Agreement","Strong Agreement","Very Strong Agreement","Very Strong Agreement"
"132","A2AMVY0LYCBZFL:3WS1NTTKEZI2BE0D2HJ3BDNMNZMF05","2",8,12,1,"50","<p style=""font-size:100px""><b>v</b></p><p style=""position: absolute; top: 30px; right: 30px; text-align:right; font-size:50px"""">N = 1</p>","v",0,73,842,1,"agree",20,18,20,21,19,"32","Male","Is awesome experiment","Very Strong Agreement","Very Strong Agreement","Very Strong Agreement","Very Strong Agreement","Very Strong Agreement","Very Strong Agreement","Very Strong Agreement","Strong Agreement","Very Strong Agreement","Very Strong Agreement","Very Strong Agreement","Very Strong Agreement","Very Strong Agreement","Strong Agreement","Very Strong Agreement","Strong Agreement","Very Strong Agreement","Very Strong Agreement"
"133","A2AMVY0LYCBZFL:3WS1NTTKEZI2BE0D2HJ3BDNMNZMF05","2",9,1,3,"50","<p style=""font-size:100px""><b>t</b></p><p style=""position: absolute; top: 30px; right: 30px; text-align:right; font-size:50px"""">N = 3</p>","t",0,73,707,1,"agree",20,20,20,19,20,"32","Male","Is awesome experiment","Very Strong Agreement","Very Strong Agreement","Very Strong Agreement","Very Strong Agreement","Very Strong Agreement","Very Strong Agreement","Very Strong Agreement","Strong Agreement","Very Strong Agreement","Very Strong Agreement","Very Strong Agreement","Very Strong Agreement","Very Strong Agreement","Strong Agreement","Very Strong Agreement","Strong Agreement","Very Strong Agreement","Very Strong Agreement"
"134","A2AMVY0LYCBZFL:3WS1NTTKEZI2BE0D2HJ3BDNMNZMF05","2",9,2,3,"50","<p style=""font-size:100px""><b>p</b></p><p style=""position: absolute; top: 30px; right: 30px; text-align:right; font-size:50px"""">N = 3</p>","p",0,NA,NA,0,"agree",20,20,20,19,20,"32","Male","Is awesome experiment","Very Strong Agreement","Very Strong Agreement","Very Strong Agreement","Very Strong Agreement","Very Strong Agreement","Very Strong Agreement","Very Strong Agreement","Strong Agreement","Very Strong Agreement","Very Strong Agreement","Very Strong Agreement","Very Strong Agreement","Very Strong Agreement","Strong Agreement","Very Strong Agreement","Strong Agreement","Very Strong Agreement","Very Strong Agreement"
"135","A2AMVY0LYCBZFL:3WS1NTTKEZI2BE0D2HJ3BDNMNZMF05","2",9,3,3,"50","<p style=""font-size:100px""><b>d</b></p><p style=""position: absolute; top: 30px; right: 30px; text-align:right; font-size:50px"""">N = 3</p>","d",0,73,977,1,"agree",20,20,20,19,20,"32","Male","Is awesome experiment","Very Strong Agreement","Very Strong Agreement","Very Strong Agreement","Very Strong Agreement","Very Strong Agreement","Very Strong Agreement","Very Strong Agreement","Strong Agreement","Very Strong Agreement","Very Strong Agreement","Very Strong Agreement","Very Strong Agreement","Very Strong Agreement","Strong Agreement","Very Strong Agreement","Strong Agreement","Very Strong Agreement","Very Strong Agreement"
"136","A2AMVY0LYCBZFL:3WS1NTTKEZI2BE0D2HJ3BDNMNZMF05","2",9,4,3,"50","<p style=""font-size:100px""><b>t</b></p><p style=""position: absolute; top: 30px; right: 30px; text-align:right; font-size:50px"""">N = 3</p>","t",0,73,923,1,"agree",20,20,20,19,20,"32","Male","Is awesome experiment","Very Strong Agreement","Very Strong Agreement","Very Strong Agreement","Very Strong Agreement","Very Strong Agreement","Very Strong Agreement","Very Strong Agreement","Strong Agreement","Very Strong Agreement","Very Strong Agreement","Very Strong Agreement","Very Strong Agreement","Very Strong Agreement","Strong Agreement","Very Strong Agreement","Strong Agreement","Very Strong Agreement","Very Strong Agreement"
"137","A2AMVY0LYCBZFL:3WS1NTTKEZI2BE0D2HJ3BDNMNZMF05","2",9,5,3,"50","<p style=""font-size:100px""><b>b</b></p><p style=""position: absolute; top: 30px; right: 30px; text-align:right; font-size:50px"""">N = 3</p>","b",0,73,756,1,"agree",20,20,20,19,20,"32","Male","Is awesome experiment","Very Strong Agreement","Very Strong Agreement","Very Strong Agreement","Very Strong Agreement","Very Strong Agreement","Very Strong Agreement","Very Strong Agreement","Strong Agreement","Very Strong Agreement","Very Strong Agreement","Very Strong Agreement","Very Strong Agreement","Very Strong Agreement","Strong Agreement","Very Strong Agreement","Strong Agreement","Very Strong Agreement","Very Strong Agreement"
"138","A2AMVY0LYCBZFL:3WS1NTTKEZI2BE0D2HJ3BDNMNZMF05","2",9,6,3,"50","<p style=""font-size:100px""><b>d</b></p><p style=""position: absolute; top: 30px; right: 30px; text-align:right; font-size:50px"""">N = 3</p>","d",0,69,998,0,"agree",20,20,20,19,20,"32","Male","Is awesome experiment","Very Strong Agreement","Very Strong Agreement","Very Strong Agreement","Very Strong Agreement","Very Strong Agreement","Very Strong Agreement","Very Strong Agreement","Strong Agreement","Very Strong Agreement","Very Strong Agreement","Very Strong Agreement","Very Strong Agreement","Very Strong Agreement","Strong Agreement","Very Strong Agreement","Strong Agreement","Very Strong Agreement","Very Strong Agreement"
"139","A2AMVY0LYCBZFL:3WS1NTTKEZI2BE0D2HJ3BDNMNZMF05","2",9,7,3,"50","<p style=""font-size:100px""><b>t</b></p><p style=""position: absolute; top: 30px; right: 30px; text-align:right; font-size:50px"""">N = 3</p>","t",0,73,664,1,"agree",20,20,20,19,20,"32","Male","Is awesome experiment","Very Strong Agreement","Very Strong Agreement","Very Strong Agreement","Very Strong Agreement","Very Strong Agreement","Very Strong Agreement","Very Strong Agreement","Strong Agreement","Very Strong Agreement","Very Strong Agreement","Very Strong Agreement","Very Strong Agreement","Very Strong Agreement","Strong Agreement","Very Strong Agreement","Strong Agreement","Very Strong Agreement","Very Strong Agreement"
"140","A2AMVY0LYCBZFL:3WS1NTTKEZI2BE0D2HJ3BDNMNZMF05","2",9,8,3,"50","<p style=""font-size:100px""><b>V</b></p><p style=""position: absolute; top: 30px; right: 30px; text-align:right; font-size:50px"""">N = 3</p>","V",0,73,886,1,"agree",20,20,20,19,20,"32","Male","Is awesome experiment","Very Strong Agreement","Very Strong Agreement","Very Strong Agreement","Very Strong Agreement","Very Strong Agreement","Very Strong Agreement","Very Strong Agreement","Strong Agreement","Very Strong Agreement","Very Strong Agreement","Very Strong Agreement","Very Strong Agreement","Very Strong Agreement","Strong Agreement","Very Strong Agreement","Strong Agreement","Very Strong Agreement","Very Strong Agreement"
"141","A2AMVY0LYCBZFL:3WS1NTTKEZI2BE0D2HJ3BDNMNZMF05","2",9,9,3,"50","<p style=""font-size:100px""><b>T</b></p><p style=""position: absolute; top: 30px; right: 30px; text-align:right; font-size:50px"""">N = 3</p>","T",0,NA,NA,0,"agree",20,20,20,19,20,"32","Male","Is awesome experiment","Very Strong Agreement","Very Strong Agreement","Very Strong Agreement","Very Strong Agreement","Very Strong Agreement","Very Strong Agreement","Very Strong Agreement","Strong Agreement","Very Strong Agreement","Very Strong Agreement","Very Strong Agreement","Very Strong Agreement","Very Strong Agreement","Strong Agreement","Very Strong Agreement","Strong Agreement","Very Strong Agreement","Very Strong Agreement"
