"","subject","run","block","trial","N","reward","stimulus","cue","isTarget","key_press","rt","acc","debrief","performance","frustration","demand","temporal","effort","age","gender","comments","nfc1","nfc2","nfc3","nfc4","nfc5","nfc6","nfc7","nfc8","nfc9","nfc10","nfc11","nfc12","nfc13","nfc14","nfc15","nfc16","nfc17","nfc18"
"1","A15XV3HYP99W8T:339ANSOTR68OYV977IZ6XUFNHLVIK8","practice",1,1,1,"NA","<p style=""font-size:100px""><b>V</b></p><p style=""position: absolute; top: 30px; right: 30px; text-align:right; font-size:50px"""">N = 1</p>","V",0,69,1144,0,"agree",18,18,18,8,5,"30","Male","very like the study","Slight Agreement","Very Strong Agreement","Moderate Agreement","Very Strong Agreement","Moderate Agreement","Moderate Agreement","Very Strong Agreement","Strong Agreement","Very Strong Agreement","Very Strong Agreement","Strong Agreement","Moderate Disagreement","Very Strong Agreement","Moderate Agreement","Moderate Agreement","Strong Agreement","Very Strong Agreement","Strong Agreement"
"2","A15XV3HYP99W8T:339ANSOTR68OYV977IZ6XUFNHLVIK8","practice",1,2,1,"NA","<p style=""font-size:100px""><b>V</b></p><p style=""position: absolute; top: 30px; right: 30px; text-align:right; font-size:50px"""">N = 1</p>","V",1,73,2289,0,"agree",18,18,18,8,5,"30","Male","very like the study","Slight Agreement","Very Strong Agreement","Moderate Agreement","Very Strong Agreement","Moderate Agreement","Moderate Agreement","Very Strong Agreement","Strong Agreement","Very Strong Agreement","Very Strong Agreement","Strong Agreement","Moderate Disagreement","Very Strong Agreement","Moderate Agreement","Moderate Agreement","Strong Agreement","Very Strong Agreement","Strong Agreement"
"3","A15XV3HYP99W8T:339ANSOTR68OYV977IZ6XUFNHLVIK8","practice",1,3,1,"NA","<p style=""font-size:100px""><b>T</b></p><p style=""position: absolute; top: 30px; right: 30px; text-align:right; font-size:50px"""">N = 1</p>","T",0,73,159,1,"agree",18,18,18,8,5,"30","Male","very like the study","Slight Agreement","Very Strong Agreement","Moderate Agreement","Very Strong Agreement","Moderate Agreement","Moderate Agreement","Very Strong Agreement","Strong Agreement","Very Strong Agreement","Very Strong Agreement","Strong Agreement","Moderate Disagreement","Very Strong Agreement","Moderate Agreement","Moderate Agreement","Strong Agreement","Very Strong Agreement","Strong Agreement"
"4","A15XV3HYP99W8T:339ANSOTR68OYV977IZ6XUFNHLVIK8","practice",1,4,1,"NA","<p style=""font-size:100px""><b>G</b></p><p style=""position: absolute; top: 30px; right: 30px; text-align:right; font-size:50px"""">N = 1</p>","G",0,73,146,1,"agree",18,18,18,8,5,"30","Male","very like the study","Slight Agreement","Very Strong Agreement","Moderate Agreement","Very Strong Agreement","Moderate Agreement","Moderate Agreement","Very Strong Agreement","Strong Agreement","Very Strong Agreement","Very Strong Agreement","Strong Agreement","Moderate Disagreement","Very Strong Agreement","Moderate Agreement","Moderate Agreement","Strong Agreement","Very Strong Agreement","Strong Agreement"
"5","A15XV3HYP99W8T:339ANSOTR68OYV977IZ6XUFNHLVIK8","practice",1,5,1,"NA","<p style=""font-size:100px""><b>D</b></p><p style=""position: absolute; top: 30px; right: 30px; text-align:right; font-size:50px"""">N = 1</p>","D",0,73,233,1,"agree",18,18,18,8,5,"30","Male","very like the study","Slight Agreement","Very Strong Agreement","Moderate Agreement","Very Strong Agreement","Moderate Agreement","Moderate Agreement","Very Strong Agreement","Strong Agreement","Very Strong Agreement","Very Strong Agreement","Strong Agreement","Moderate Disagreement","Very Strong Agreement","Moderate Agreement","Moderate Agreement","Strong Agreement","Very Strong Agreement","Strong Agreement"
"6","A15XV3HYP99W8T:339ANSOTR68OYV977IZ6XUFNHLVIK8","practice",1,6,1,"NA","<p style=""font-size:100px""><b>D</b></p><p style=""position: absolute; top: 30px; right: 30px; text-align:right; font-size:50px"""">N = 1</p>","D",1,73,203,0,"agree",18,18,18,8,5,"30","Male","very like the study","Slight Agreement","Very Strong Agreement","Moderate Agreement","Very Strong Agreement","Moderate Agreement","Moderate Agreement","Very Strong Agreement","Strong Agreement","Very Strong Agreement","Very Strong Agreement","Strong Agreement","Moderate Disagreement","Very Strong Agreement","Moderate Agreement","Moderate Agreement","Strong Agreement","Very Strong Agreement","Strong Agreement"
"7","A15XV3HYP99W8T:339ANSOTR68OYV977IZ6XUFNHLVIK8","practice",1,7,1,"NA","<p style=""font-size:100px""><b>g</b></p><p style=""position: absolute; top: 30px; right: 30px; text-align:right; font-size:50px"""">N = 1</p>","g",0,69,228,0,"agree",18,18,18,8,5,"30","Male","very like the study","Slight Agreement","Very Strong Agreement","Moderate Agreement","Very Strong Agreement","Moderate Agreement","Moderate Agreement","Very Strong Agreement","Strong Agreement","Very Strong Agreement","Very Strong Agreement","Strong Agreement","Moderate Disagreement","Very Strong Agreement","Moderate Agreement","Moderate Agreement","Strong Agreement","Very Strong Agreement","Strong Agreement"
"8","A15XV3HYP99W8T:339ANSOTR68OYV977IZ6XUFNHLVIK8","practice",1,8,1,"NA","<p style=""font-size:100px""><b>g</b></p><p style=""position: absolute; top: 30px; right: 30px; text-align:right; font-size:50px"""">N = 1</p>","g",1,73,205,0,"agree",18,18,18,8,5,"30","Male","very like the study","Slight Agreement","Very Strong Agreement","Moderate Agreement","Very Strong Agreement","Moderate Agreement","Moderate Agreement","Very Strong Agreement","Strong Agreement","Very Strong Agreement","Very Strong Agreement","Strong Agreement","Moderate Disagreement","Very Strong Agreement","Moderate Agreement","Moderate Agreement","Strong Agreement","Very Strong Agreement","Strong Agreement"
"9","A15XV3HYP99W8T:339ANSOTR68OYV977IZ6XUFNHLVIK8","practice",1,9,1,"NA","<p style=""font-size:100px""><b>D</b></p><p style=""position: absolute; top: 30px; right: 30px; text-align:right; font-size:50px"""">N = 1</p>","D",0,73,264,1,"agree",18,18,18,8,5,"30","Male","very like the study","Slight Agreement","Very Strong Agreement","Moderate Agreement","Very Strong Agreement","Moderate Agreement","Moderate Agreement","Very Strong Agreement","Strong Agreement","Very Strong Agreement","Very Strong Agreement","Strong Agreement","Moderate Disagreement","Very Strong Agreement","Moderate Agreement","Moderate Agreement","Strong Agreement","Very Strong Agreement","Strong Agreement"
"10","A15XV3HYP99W8T:339ANSOTR68OYV977IZ6XUFNHLVIK8","practice",1,10,1,"NA","<p style=""font-size:100px""><b>D</b></p><p style=""position: absolute; top: 30px; right: 30px; text-align:right; font-size:50px"""">N = 1</p>","D",1,73,862,0,"agree",18,18,18,8,5,"30","Male","very like the study","Slight Agreement","Very Strong Agreement","Moderate Agreement","Very Strong Agreement","Moderate Agreement","Moderate Agreement","Very Strong Agreement","Strong Agreement","Very Strong Agreement","Very Strong Agreement","Strong Agreement","Moderate Disagreement","Very Strong Agreement","Moderate Agreement","Moderate Agreement","Strong Agreement","Very Strong Agreement","Strong Agreement"
"11","A15XV3HYP99W8T:339ANSOTR68OYV977IZ6XUFNHLVIK8","practice",1,11,1,"NA","<p style=""font-size:100px""><b>P</b></p><p style=""position: absolute; top: 30px; right: 30px; text-align:right; font-size:50px"""">N = 1</p>","P",0,69,127,0,"agree",18,18,18,8,5,"30","Male","very like the study","Slight Agreement","Very Strong Agreement","Moderate Agreement","Very Strong Agreement","Moderate Agreement","Moderate Agreement","Very Strong Agreement","Strong Agreement","Very Strong Agreement","Very Strong Agreement","Strong Agreement","Moderate Disagreement","Very Strong Agreement","Moderate Agreement","Moderate Agreement","Strong Agreement","Very Strong Agreement","Strong Agreement"
"12","A15XV3HYP99W8T:339ANSOTR68OYV977IZ6XUFNHLVIK8","practice",1,12,1,"NA","<p style=""font-size:100px""><b>T</b></p><p style=""position: absolute; top: 30px; right: 30px; text-align:right; font-size:50px"""">N = 1</p>","T",0,69,55,0,"agree",18,18,18,8,5,"30","Male","very like the study","Slight Agreement","Very Strong Agreement","Moderate Agreement","Very Strong Agreement","Moderate Agreement","Moderate Agreement","Very Strong Agreement","Strong Agreement","Very Strong Agreement","Very Strong Agreement","Strong Agreement","Moderate Disagreement","Very Strong Agreement","Moderate Agreement","Moderate Agreement","Strong Agreement","Very Strong Agreement","Strong Agreement"
"13","A15XV3HYP99W8T:339ANSOTR68OYV977IZ6XUFNHLVIK8","practice",2,1,2,"NA","<p style=""font-size:100px""><b>B</b></p><p style=""position: absolute; top: 30px; right: 30px; text-align:right; font-size:50px"""">N = 2</p>","B",0,73,1632,1,"agree",18,18,18,8,5,"30","Male","very like the study","Slight Agreement","Very Strong Agreement","Moderate Agreement","Very Strong Agreement","Moderate Agreement","Moderate Agreement","Very Strong Agreement","Strong Agreement","Very Strong Agreement","Very Strong Agreement","Strong Agreement","Moderate Disagreement","Very Strong Agreement","Moderate Agreement","Moderate Agreement","Strong Agreement","Very Strong Agreement","Strong Agreement"
"14","A15XV3HYP99W8T:339ANSOTR68OYV977IZ6XUFNHLVIK8","practice",2,2,2,"NA","<p style=""font-size:100px""><b>t</b></p><p style=""position: absolute; top: 30px; right: 30px; text-align:right; font-size:50px"""">N = 2</p>","t",0,73,1069,1,"agree",18,18,18,8,5,"30","Male","very like the study","Slight Agreement","Very Strong Agreement","Moderate Agreement","Very Strong Agreement","Moderate Agreement","Moderate Agreement","Very Strong Agreement","Strong Agreement","Very Strong Agreement","Very Strong Agreement","Strong Agreement","Moderate Disagreement","Very Strong Agreement","Moderate Agreement","Moderate Agreement","Strong Agreement","Very Strong Agreement","Strong Agreement"
"15","A15XV3HYP99W8T:339ANSOTR68OYV977IZ6XUFNHLVIK8","practice",2,3,2,"NA","<p style=""font-size:100px""><b>V</b></p><p style=""position: absolute; top: 30px; right: 30px; text-align:right; font-size:50px"""">N = 2</p>","V",0,69,1558,0,"agree",18,18,18,8,5,"30","Male","very like the study","Slight Agreement","Very Strong Agreement","Moderate Agreement","Very Strong Agreement","Moderate Agreement","Moderate Agreement","Very Strong Agreement","Strong Agreement","Very Strong Agreement","Very Strong Agreement","Strong Agreement","Moderate Disagreement","Very Strong Agreement","Moderate Agreement","Moderate Agreement","Strong Agreement","Very Strong Agreement","Strong Agreement"
"16","A15XV3HYP99W8T:339ANSOTR68OYV977IZ6XUFNHLVIK8","practice",2,4,2,"NA","<p style=""font-size:100px""><b>t</b></p><p style=""position: absolute; top: 30px; right: 30px; text-align:right; font-size:50px"""">N = 2</p>","t",1,73,1042,0,"agree",18,18,18,8,5,"30","Male","very like the study","Slight Agreement","Very Strong Agreement","Moderate Agreement","Very Strong Agreement","Moderate Agreement","Moderate Agreement","Very Strong Agreement","Strong Agreement","Very Strong Agreement","Very Strong Agreement","Strong Agreement","Moderate Disagreement","Very Strong Agreement","Moderate Agreement","Moderate Agreement","Strong Agreement","Very Strong Agreement","Strong Agreement"
"17","A15XV3HYP99W8T:339ANSOTR68OYV977IZ6XUFNHLVIK8","practice",2,5,2,"NA","<p style=""font-size:100px""><b>t</b></p><p style=""position: absolute; top: 30px; right: 30px; text-align:right; font-size:50px"""">N = 2</p>","t",0,73,1073,1,"agree",18,18,18,8,5,"30","Male","very like the study","Slight Agreement","Very Strong Agreement","Moderate Agreement","Very Strong Agreement","Moderate Agreement","Moderate Agreement","Very Strong Agreement","Strong Agreement","Very Strong Agreement","Very Strong Agreement","Strong Agreement","Moderate Disagreement","Very Strong Agreement","Moderate Agreement","Moderate Agreement","Strong Agreement","Very Strong Agreement","Strong Agreement"
"18","A15XV3HYP99W8T:339ANSOTR68OYV977IZ6XUFNHLVIK8","practice",2,6,2,"NA","<p style=""font-size:100px""><b>t</b></p><p style=""position: absolute; top: 30px; right: 30px; text-align:right; font-size:50px"""">N = 2</p>","t",1,73,2384,0,"agree",18,18,18,8,5,"30","Male","very like the study","Slight Agreement","Very Strong Agreement","Moderate Agreement","Very Strong Agreement","Moderate Agreement","Moderate Agreement","Very Strong Agreement","Strong Agreement","Very Strong Agreement","Very Strong Agreement","Strong Agreement","Moderate Disagreement","Very Strong Agreement","Moderate Agreement","Moderate Agreement","Strong Agreement","Very Strong Agreement","Strong Agreement"
"19","A15XV3HYP99W8T:339ANSOTR68OYV977IZ6XUFNHLVIK8","practice",2,7,2,"NA","<p style=""font-size:100px""><b>t</b></p><p style=""position: absolute; top: 30px; right: 30px; text-align:right; font-size:50px"""">N = 2</p>","t",1,69,1740,1,"agree",18,18,18,8,5,"30","Male","very like the study","Slight Agreement","Very Strong Agreement","Moderate Agreement","Very Strong Agreement","Moderate Agreement","Moderate Agreement","Very Strong Agreement","Strong Agreement","Very Strong Agreement","Very Strong Agreement","Strong Agreement","Moderate Disagreement","Very Strong Agreement","Moderate Agreement","Moderate Agreement","Strong Agreement","Very Strong Agreement","Strong Agreement"
"20","A15XV3HYP99W8T:339ANSOTR68OYV977IZ6XUFNHLVIK8","practice",2,8,2,"NA","<p style=""font-size:100px""><b>d</b></p><p style=""position: absolute; top: 30px; right: 30px; text-align:right; font-size:50px"""">N = 2</p>","d",0,69,1861,0,"agree",18,18,18,8,5,"30","Male","very like the study","Slight Agreement","Very Strong Agreement","Moderate Agreement","Very Strong Agreement","Moderate Agreement","Moderate Agreement","Very Strong Agreement","Strong Agreement","Very Strong Agreement","Very Strong Agreement","Strong Agreement","Moderate Disagreement","Very Strong Agreement","Moderate Agreement","Moderate Agreement","Strong Agreement","Very Strong Agreement","Strong Agreement"
"21","A15XV3HYP99W8T:339ANSOTR68OYV977IZ6XUFNHLVIK8","practice",2,9,2,"NA","<p style=""font-size:100px""><b>b</b></p><p style=""position: absolute; top: 30px; right: 30px; text-align:right; font-size:50px"""">N = 2</p>","b",0,73,237,1,"agree",18,18,18,8,5,"30","Male","very like the study","Slight Agreement","Very Strong Agreement","Moderate Agreement","Very Strong Agreement","Moderate Agreement","Moderate Agreement","Very Strong Agreement","Strong Agreement","Very Strong Agreement","Very Strong Agreement","Strong Agreement","Moderate Disagreement","Very Strong Agreement","Moderate Agreement","Moderate Agreement","Strong Agreement","Very Strong Agreement","Strong Agreement"
"22","A15XV3HYP99W8T:339ANSOTR68OYV977IZ6XUFNHLVIK8","practice",2,10,2,"NA","<p style=""font-size:100px""><b>p</b></p><p style=""position: absolute; top: 30px; right: 30px; text-align:right; font-size:50px"""">N = 2</p>","p",0,69,0,0,"agree",18,18,18,8,5,"30","Male","very like the study","Slight Agreement","Very Strong Agreement","Moderate Agreement","Very Strong Agreement","Moderate Agreement","Moderate Agreement","Very Strong Agreement","Strong Agreement","Very Strong Agreement","Very Strong Agreement","Strong Agreement","Moderate Disagreement","Very Strong Agreement","Moderate Agreement","Moderate Agreement","Strong Agreement","Very Strong Agreement","Strong Agreement"
"23","A15XV3HYP99W8T:339ANSOTR68OYV977IZ6XUFNHLVIK8","practice",2,11,2,"NA","<p style=""font-size:100px""><b>d</b></p><p style=""position: absolute; top: 30px; right: 30px; text-align:right; font-size:50px"""">N = 2</p>","d",0,69,111,0,"agree",18,18,18,8,5,"30","Male","very like the study","Slight Agreement","Very Strong Agreement","Moderate Agreement","Very Strong Agreement","Moderate Agreement","Moderate Agreement","Very Strong Agreement","Strong Agreement","Very Strong Agreement","Very Strong Agreement","Strong Agreement","Moderate Disagreement","Very Strong Agreement","Moderate Agreement","Moderate Agreement","Strong Agreement","Very Strong Agreement","Strong Agreement"
"24","A15XV3HYP99W8T:339ANSOTR68OYV977IZ6XUFNHLVIK8","practice",2,12,2,"NA","<p style=""font-size:100px""><b>p</b></p><p style=""position: absolute; top: 30px; right: 30px; text-align:right; font-size:50px"""">N = 2</p>","p",1,73,87,0,"agree",18,18,18,8,5,"30","Male","very like the study","Slight Agreement","Very Strong Agreement","Moderate Agreement","Very Strong Agreement","Moderate Agreement","Moderate Agreement","Very Strong Agreement","Strong Agreement","Very Strong Agreement","Very Strong Agreement","Strong Agreement","Moderate Disagreement","Very Strong Agreement","Moderate Agreement","Moderate Agreement","Strong Agreement","Very Strong Agreement","Strong Agreement"
"25","A15XV3HYP99W8T:339ANSOTR68OYV977IZ6XUFNHLVIK8","practice",3,1,3,"NA","<p style=""font-size:100px""><b>T</b></p><p style=""position: absolute; top: 30px; right: 30px; text-align:right; font-size:50px"""">N = 3</p>","T",0,69,165023,0,"agree",18,18,18,8,5,"30","Male","very like the study","Slight Agreement","Very Strong Agreement","Moderate Agreement","Very Strong Agreement","Moderate Agreement","Moderate Agreement","Very Strong Agreement","Strong Agreement","Very Strong Agreement","Very Strong Agreement","Strong Agreement","Moderate Disagreement","Very Strong Agreement","Moderate Agreement","Moderate Agreement","Strong Agreement","Very Strong Agreement","Strong Agreement"
"26","A15XV3HYP99W8T:339ANSOTR68OYV977IZ6XUFNHLVIK8","practice",3,2,3,"NA","<p style=""font-size:100px""><b>g</b></p><p style=""position: absolute; top: 30px; right: 30px; text-align:right; font-size:50px"""">N = 3</p>","g",0,69,120,0,"agree",18,18,18,8,5,"30","Male","very like the study","Slight Agreement","Very Strong Agreement","Moderate Agreement","Very Strong Agreement","Moderate Agreement","Moderate Agreement","Very Strong Agreement","Strong Agreement","Very Strong Agreement","Very Strong Agreement","Strong Agreement","Moderate Disagreement","Very Strong Agreement","Moderate Agreement","Moderate Agreement","Strong Agreement","Very Strong Agreement","Strong Agreement"
"27","A15XV3HYP99W8T:339ANSOTR68OYV977IZ6XUFNHLVIK8","practice",3,3,3,"NA","<p style=""font-size:100px""><b>d</b></p><p style=""position: absolute; top: 30px; right: 30px; text-align:right; font-size:50px"""">N = 3</p>","d",0,69,54,0,"agree",18,18,18,8,5,"30","Male","very like the study","Slight Agreement","Very Strong Agreement","Moderate Agreement","Very Strong Agreement","Moderate Agreement","Moderate Agreement","Very Strong Agreement","Strong Agreement","Very Strong Agreement","Very Strong Agreement","Strong Agreement","Moderate Disagreement","Very Strong Agreement","Moderate Agreement","Moderate Agreement","Strong Agreement","Very Strong Agreement","Strong Agreement"
"28","A15XV3HYP99W8T:339ANSOTR68OYV977IZ6XUFNHLVIK8","practice",3,4,3,"NA","<p style=""font-size:100px""><b>T</b></p><p style=""position: absolute; top: 30px; right: 30px; text-align:right; font-size:50px"""">N = 3</p>","T",1,69,191,1,"agree",18,18,18,8,5,"30","Male","very like the study","Slight Agreement","Very Strong Agreement","Moderate Agreement","Very Strong Agreement","Moderate Agreement","Moderate Agreement","Very Strong Agreement","Strong Agreement","Very Strong Agreement","Very Strong Agreement","Strong Agreement","Moderate Disagreement","Very Strong Agreement","Moderate Agreement","Moderate Agreement","Strong Agreement","Very Strong Agreement","Strong Agreement"
"29","A15XV3HYP99W8T:339ANSOTR68OYV977IZ6XUFNHLVIK8","practice",3,5,3,"NA","<p style=""font-size:100px""><b>g</b></p><p style=""position: absolute; top: 30px; right: 30px; text-align:right; font-size:50px"""">N = 3</p>","g",1,69,140,1,"agree",18,18,18,8,5,"30","Male","very like the study","Slight Agreement","Very Strong Agreement","Moderate Agreement","Very Strong Agreement","Moderate Agreement","Moderate Agreement","Very Strong Agreement","Strong Agreement","Very Strong Agreement","Very Strong Agreement","Strong Agreement","Moderate Disagreement","Very Strong Agreement","Moderate Agreement","Moderate Agreement","Strong Agreement","Very Strong Agreement","Strong Agreement"
"30","A15XV3HYP99W8T:339ANSOTR68OYV977IZ6XUFNHLVIK8","practice",3,6,3,"NA","<p style=""font-size:100px""><b>t</b></p><p style=""position: absolute; top: 30px; right: 30px; text-align:right; font-size:50px"""">N = 3</p>","t",0,73,38,1,"agree",18,18,18,8,5,"30","Male","very like the study","Slight Agreement","Very Strong Agreement","Moderate Agreement","Very Strong Agreement","Moderate Agreement","Moderate Agreement","Very Strong Agreement","Strong Agreement","Very Strong Agreement","Very Strong Agreement","Strong Agreement","Moderate Disagreement","Very Strong Agreement","Moderate Agreement","Moderate Agreement","Strong Agreement","Very Strong Agreement","Strong Agreement"
"31","A15XV3HYP99W8T:339ANSOTR68OYV977IZ6XUFNHLVIK8","practice",3,7,3,"NA","<p style=""font-size:100px""><b>G</b></p><p style=""position: absolute; top: 30px; right: 30px; text-align:right; font-size:50px"""">N = 3</p>","G",0,69,85,0,"agree",18,18,18,8,5,"30","Male","very like the study","Slight Agreement","Very Strong Agreement","Moderate Agreement","Very Strong Agreement","Moderate Agreement","Moderate Agreement","Very Strong Agreement","Strong Agreement","Very Strong Agreement","Very Strong Agreement","Strong Agreement","Moderate Disagreement","Very Strong Agreement","Moderate Agreement","Moderate Agreement","Strong Agreement","Very Strong Agreement","Strong Agreement"
"32","A15XV3HYP99W8T:339ANSOTR68OYV977IZ6XUFNHLVIK8","practice",3,8,3,"NA","<p style=""font-size:100px""><b>t</b></p><p style=""position: absolute; top: 30px; right: 30px; text-align:right; font-size:50px"""">N = 3</p>","t",0,73,165,1,"agree",18,18,18,8,5,"30","Male","very like the study","Slight Agreement","Very Strong Agreement","Moderate Agreement","Very Strong Agreement","Moderate Agreement","Moderate Agreement","Very Strong Agreement","Strong Agreement","Very Strong Agreement","Very Strong Agreement","Strong Agreement","Moderate Disagreement","Very Strong Agreement","Moderate Agreement","Moderate Agreement","Strong Agreement","Very Strong Agreement","Strong Agreement"
"33","A15XV3HYP99W8T:339ANSOTR68OYV977IZ6XUFNHLVIK8","practice",3,9,3,"NA","<p style=""font-size:100px""><b>V</b></p><p style=""position: absolute; top: 30px; right: 30px; text-align:right; font-size:50px"""">N = 3</p>","V",0,73,218,1,"agree",18,18,18,8,5,"30","Male","very like the study","Slight Agreement","Very Strong Agreement","Moderate Agreement","Very Strong Agreement","Moderate Agreement","Moderate Agreement","Very Strong Agreement","Strong Agreement","Very Strong Agreement","Very Strong Agreement","Strong Agreement","Moderate Disagreement","Very Strong Agreement","Moderate Agreement","Moderate Agreement","Strong Agreement","Very Strong Agreement","Strong Agreement"
"34","A15XV3HYP99W8T:339ANSOTR68OYV977IZ6XUFNHLVIK8","practice",3,10,3,"NA","<p style=""font-size:100px""><b>G</b></p><p style=""position: absolute; top: 30px; right: 30px; text-align:right; font-size:50px"""">N = 3</p>","G",1,73,240,0,"agree",18,18,18,8,5,"30","Male","very like the study","Slight Agreement","Very Strong Agreement","Moderate Agreement","Very Strong Agreement","Moderate Agreement","Moderate Agreement","Very Strong Agreement","Strong Agreement","Very Strong Agreement","Very Strong Agreement","Strong Agreement","Moderate Disagreement","Very Strong Agreement","Moderate Agreement","Moderate Agreement","Strong Agreement","Very Strong Agreement","Strong Agreement"
"35","A15XV3HYP99W8T:339ANSOTR68OYV977IZ6XUFNHLVIK8","practice",3,11,3,"NA","<p style=""font-size:100px""><b>t</b></p><p style=""position: absolute; top: 30px; right: 30px; text-align:right; font-size:50px"""">N = 3</p>","t",1,73,16,0,"agree",18,18,18,8,5,"30","Male","very like the study","Slight Agreement","Very Strong Agreement","Moderate Agreement","Very Strong Agreement","Moderate Agreement","Moderate Agreement","Very Strong Agreement","Strong Agreement","Very Strong Agreement","Very Strong Agreement","Strong Agreement","Moderate Disagreement","Very Strong Agreement","Moderate Agreement","Moderate Agreement","Strong Agreement","Very Strong Agreement","Strong Agreement"
"36","A15XV3HYP99W8T:339ANSOTR68OYV977IZ6XUFNHLVIK8","practice",3,12,3,"NA","<p style=""font-size:100px""><b>g</b></p><p style=""position: absolute; top: 30px; right: 30px; text-align:right; font-size:50px"""">N = 3</p>","g",0,73,46,1,"agree",18,18,18,8,5,"30","Male","very like the study","Slight Agreement","Very Strong Agreement","Moderate Agreement","Very Strong Agreement","Moderate Agreement","Moderate Agreement","Very Strong Agreement","Strong Agreement","Very Strong Agreement","Very Strong Agreement","Strong Agreement","Moderate Disagreement","Very Strong Agreement","Moderate Agreement","Moderate Agreement","Strong Agreement","Very Strong Agreement","Strong Agreement"
"37","A15XV3HYP99W8T:339ANSOTR68OYV977IZ6XUFNHLVIK8","1",1,1,2,"50","<p style=""font-size:100px""><b>P</b></p><p style=""position: absolute; top: 30px; right: 30px; text-align:right; font-size:50px"""">N = 2</p>","P",0,73,970,1,"agree",18,18,18,8,5,"30","Male","very like the study","Slight Agreement","Very Strong Agreement","Moderate Agreement","Very Strong Agreement","Moderate Agreement","Moderate Agreement","Very Strong Agreement","Strong Agreement","Very Strong Agreement","Very Strong Agreement","Strong Agreement","Moderate Disagreement","Very Strong Agreement","Moderate Agreement","Moderate Agreement","Strong Agreement","Very Strong Agreement","Strong Agreement"
"38","A15XV3HYP99W8T:339ANSOTR68OYV977IZ6XUFNHLVIK8","1",1,2,2,"50","<p style=""font-size:100px""><b>p</b></p><p style=""position: absolute; top: 30px; right: 30px; text-align:right; font-size:50px"""">N = 2</p>","p",0,73,551,1,"agree",18,18,18,8,5,"30","Male","very like the study","Slight Agreement","Very Strong Agreement","Moderate Agreement","Very Strong Agreement","Moderate Agreement","Moderate Agreement","Very Strong Agreement","Strong Agreement","Very Strong Agreement","Very Strong Agreement","Strong Agreement","Moderate Disagreement","Very Strong Agreement","Moderate Agreement","Moderate Agreement","Strong Agreement","Very Strong Agreement","Strong Agreement"
"39","A15XV3HYP99W8T:339ANSOTR68OYV977IZ6XUFNHLVIK8","1",1,3,2,"50","<p style=""font-size:100px""><b>v</b></p><p style=""position: absolute; top: 30px; right: 30px; text-align:right; font-size:50px"""">N = 2</p>","v",0,73,695,1,"agree",18,18,18,8,5,"30","Male","very like the study","Slight Agreement","Very Strong Agreement","Moderate Agreement","Very Strong Agreement","Moderate Agreement","Moderate Agreement","Very Strong Agreement","Strong Agreement","Very Strong Agreement","Very Strong Agreement","Strong Agreement","Moderate Disagreement","Very Strong Agreement","Moderate Agreement","Moderate Agreement","Strong Agreement","Very Strong Agreement","Strong Agreement"
"40","A15XV3HYP99W8T:339ANSOTR68OYV977IZ6XUFNHLVIK8","1",1,4,2,"50","<p style=""font-size:100px""><b>v</b></p><p style=""position: absolute; top: 30px; right: 30px; text-align:right; font-size:50px"""">N = 2</p>","v",0,73,783,1,"agree",18,18,18,8,5,"30","Male","very like the study","Slight Agreement","Very Strong Agreement","Moderate Agreement","Very Strong Agreement","Moderate Agreement","Moderate Agreement","Very Strong Agreement","Strong Agreement","Very Strong Agreement","Very Strong Agreement","Strong Agreement","Moderate Disagreement","Very Strong Agreement","Moderate Agreement","Moderate Agreement","Strong Agreement","Very Strong Agreement","Strong Agreement"
"41","A15XV3HYP99W8T:339ANSOTR68OYV977IZ6XUFNHLVIK8","1",1,5,2,"50","<p style=""font-size:100px""><b>v</b></p><p style=""position: absolute; top: 30px; right: 30px; text-align:right; font-size:50px"""">N = 2</p>","v",0,73,201,1,"agree",18,18,18,8,5,"30","Male","very like the study","Slight Agreement","Very Strong Agreement","Moderate Agreement","Very Strong Agreement","Moderate Agreement","Moderate Agreement","Very Strong Agreement","Strong Agreement","Very Strong Agreement","Very Strong Agreement","Strong Agreement","Moderate Disagreement","Very Strong Agreement","Moderate Agreement","Moderate Agreement","Strong Agreement","Very Strong Agreement","Strong Agreement"
"42","A15XV3HYP99W8T:339ANSOTR68OYV977IZ6XUFNHLVIK8","1",1,6,2,"50","<p style=""font-size:100px""><b>t</b></p><p style=""position: absolute; top: 30px; right: 30px; text-align:right; font-size:50px"""">N = 2</p>","t",0,73,76,1,"agree",18,18,18,8,5,"30","Male","very like the study","Slight Agreement","Very Strong Agreement","Moderate Agreement","Very Strong Agreement","Moderate Agreement","Moderate Agreement","Very Strong Agreement","Strong Agreement","Very Strong Agreement","Very Strong Agreement","Strong Agreement","Moderate Disagreement","Very Strong Agreement","Moderate Agreement","Moderate Agreement","Strong Agreement","Very Strong Agreement","Strong Agreement"
"43","A15XV3HYP99W8T:339ANSOTR68OYV977IZ6XUFNHLVIK8","1",1,7,2,"50","<p style=""font-size:100px""><b>p</b></p><p style=""position: absolute; top: 30px; right: 30px; text-align:right; font-size:50px"""">N = 2</p>","p",0,73,269,1,"agree",18,18,18,8,5,"30","Male","very like the study","Slight Agreement","Very Strong Agreement","Moderate Agreement","Very Strong Agreement","Moderate Agreement","Moderate Agreement","Very Strong Agreement","Strong Agreement","Very Strong Agreement","Very Strong Agreement","Strong Agreement","Moderate Disagreement","Very Strong Agreement","Moderate Agreement","Moderate Agreement","Strong Agreement","Very Strong Agreement","Strong Agreement"
"44","A15XV3HYP99W8T:339ANSOTR68OYV977IZ6XUFNHLVIK8","1",1,8,2,"50","<p style=""font-size:100px""><b>G</b></p><p style=""position: absolute; top: 30px; right: 30px; text-align:right; font-size:50px"""">N = 2</p>","G",0,69,390,0,"agree",18,18,18,8,5,"30","Male","very like the study","Slight Agreement","Very Strong Agreement","Moderate Agreement","Very Strong Agreement","Moderate Agreement","Moderate Agreement","Very Strong Agreement","Strong Agreement","Very Strong Agreement","Very Strong Agreement","Strong Agreement","Moderate Disagreement","Very Strong Agreement","Moderate Agreement","Moderate Agreement","Strong Agreement","Very Strong Agreement","Strong Agreement"
"45","A15XV3HYP99W8T:339ANSOTR68OYV977IZ6XUFNHLVIK8","1",1,9,2,"50","<p style=""font-size:100px""><b>G</b></p><p style=""position: absolute; top: 30px; right: 30px; text-align:right; font-size:50px"""">N = 2</p>","G",0,73,109,1,"agree",18,18,18,8,5,"30","Male","very like the study","Slight Agreement","Very Strong Agreement","Moderate Agreement","Very Strong Agreement","Moderate Agreement","Moderate Agreement","Very Strong Agreement","Strong Agreement","Very Strong Agreement","Very Strong Agreement","Strong Agreement","Moderate Disagreement","Very Strong Agreement","Moderate Agreement","Moderate Agreement","Strong Agreement","Very Strong Agreement","Strong Agreement"
"46","A15XV3HYP99W8T:339ANSOTR68OYV977IZ6XUFNHLVIK8","1",1,10,2,"50","<p style=""font-size:100px""><b>G</b></p><p style=""position: absolute; top: 30px; right: 30px; text-align:right; font-size:50px"""">N = 2</p>","G",0,NA,NA,0,"agree",18,18,18,8,5,"30","Male","very like the study","Slight Agreement","Very Strong Agreement","Moderate Agreement","Very Strong Agreement","Moderate Agreement","Moderate Agreement","Very Strong Agreement","Strong Agreement","Very Strong Agreement","Very Strong Agreement","Strong Agreement","Moderate Disagreement","Very Strong Agreement","Moderate Agreement","Moderate Agreement","Strong Agreement","Very Strong Agreement","Strong Agreement"
"47","A15XV3HYP99W8T:339ANSOTR68OYV977IZ6XUFNHLVIK8","1",1,11,2,"50","<p style=""font-size:100px""><b>G</b></p><p style=""position: absolute; top: 30px; right: 30px; text-align:right; font-size:50px"""">N = 2</p>","G",0,NA,NA,0,"agree",18,18,18,8,5,"30","Male","very like the study","Slight Agreement","Very Strong Agreement","Moderate Agreement","Very Strong Agreement","Moderate Agreement","Moderate Agreement","Very Strong Agreement","Strong Agreement","Very Strong Agreement","Very Strong Agreement","Strong Agreement","Moderate Disagreement","Very Strong Agreement","Moderate Agreement","Moderate Agreement","Strong Agreement","Very Strong Agreement","Strong Agreement"
"48","A15XV3HYP99W8T:339ANSOTR68OYV977IZ6XUFNHLVIK8","1",1,12,2,"50","<p style=""font-size:100px""><b>G</b></p><p style=""position: absolute; top: 30px; right: 30px; text-align:right; font-size:50px"""">N = 2</p>","G",0,NA,NA,0,"agree",18,18,18,8,5,"30","Male","very like the study","Slight Agreement","Very Strong Agreement","Moderate Agreement","Very Strong Agreement","Moderate Agreement","Moderate Agreement","Very Strong Agreement","Strong Agreement","Very Strong Agreement","Very Strong Agreement","Strong Agreement","Moderate Disagreement","Very Strong Agreement","Moderate Agreement","Moderate Agreement","Strong Agreement","Very Strong Agreement","Strong Agreement"
"49","A15XV3HYP99W8T:339ANSOTR68OYV977IZ6XUFNHLVIK8","1",2,1,3,"50","<p style=""font-size:100px""><b>D</b></p><p style=""position: absolute; top: 30px; right: 30px; text-align:right; font-size:50px"""">N = 3</p>","D",0,69,625,0,"agree",16,18,18,10,17,"30","Male","very like the study","Slight Agreement","Very Strong Agreement","Moderate Agreement","Very Strong Agreement","Moderate Agreement","Moderate Agreement","Very Strong Agreement","Strong Agreement","Very Strong Agreement","Very Strong Agreement","Strong Agreement","Moderate Disagreement","Very Strong Agreement","Moderate Agreement","Moderate Agreement","Strong Agreement","Very Strong Agreement","Strong Agreement"
"50","A15XV3HYP99W8T:339ANSOTR68OYV977IZ6XUFNHLVIK8","1",2,2,3,"50","<p style=""font-size:100px""><b>d</b></p><p style=""position: absolute; top: 30px; right: 30px; text-align:right; font-size:50px"""">N = 3</p>","d",0,69,398,0,"agree",16,18,18,10,17,"30","Male","very like the study","Slight Agreement","Very Strong Agreement","Moderate Agreement","Very Strong Agreement","Moderate Agreement","Moderate Agreement","Very Strong Agreement","Strong Agreement","Very Strong Agreement","Very Strong Agreement","Strong Agreement","Moderate Disagreement","Very Strong Agreement","Moderate Agreement","Moderate Agreement","Strong Agreement","Very Strong Agreement","Strong Agreement"
"51","A15XV3HYP99W8T:339ANSOTR68OYV977IZ6XUFNHLVIK8","1",2,3,3,"50","<p style=""font-size:100px""><b>b</b></p><p style=""position: absolute; top: 30px; right: 30px; text-align:right; font-size:50px"""">N = 3</p>","b",0,73,1,1,"agree",16,18,18,10,17,"30","Male","very like the study","Slight Agreement","Very Strong Agreement","Moderate Agreement","Very Strong Agreement","Moderate Agreement","Moderate Agreement","Very Strong Agreement","Strong Agreement","Very Strong Agreement","Very Strong Agreement","Strong Agreement","Moderate Disagreement","Very Strong Agreement","Moderate Agreement","Moderate Agreement","Strong Agreement","Very Strong Agreement","Strong Agreement"
"52","A15XV3HYP99W8T:339ANSOTR68OYV977IZ6XUFNHLVIK8","1",2,4,3,"50","<p style=""font-size:100px""><b>D</b></p><p style=""position: absolute; top: 30px; right: 30px; text-align:right; font-size:50px"""">N = 3</p>","D",0,69,129,0,"agree",16,18,18,10,17,"30","Male","very like the study","Slight Agreement","Very Strong Agreement","Moderate Agreement","Very Strong Agreement","Moderate Agreement","Moderate Agreement","Very Strong Agreement","Strong Agreement","Very Strong Agreement","Very Strong Agreement","Strong Agreement","Moderate Disagreement","Very Strong Agreement","Moderate Agreement","Moderate Agreement","Strong Agreement","Very Strong Agreement","Strong Agreement"
"53","A15XV3HYP99W8T:339ANSOTR68OYV977IZ6XUFNHLVIK8","1",2,5,3,"50","<p style=""font-size:100px""><b>B</b></p><p style=""position: absolute; top: 30px; right: 30px; text-align:right; font-size:50px"""">N = 3</p>","B",0,69,66,0,"agree",16,18,18,10,17,"30","Male","very like the study","Slight Agreement","Very Strong Agreement","Moderate Agreement","Very Strong Agreement","Moderate Agreement","Moderate Agreement","Very Strong Agreement","Strong Agreement","Very Strong Agreement","Very Strong Agreement","Strong Agreement","Moderate Disagreement","Very Strong Agreement","Moderate Agreement","Moderate Agreement","Strong Agreement","Very Strong Agreement","Strong Agreement"
"54","A15XV3HYP99W8T:339ANSOTR68OYV977IZ6XUFNHLVIK8","1",2,6,3,"50","<p style=""font-size:100px""><b>p</b></p><p style=""position: absolute; top: 30px; right: 30px; text-align:right; font-size:50px"""">N = 3</p>","p",0,73,15,1,"agree",16,18,18,10,17,"30","Male","very like the study","Slight Agreement","Very Strong Agreement","Moderate Agreement","Very Strong Agreement","Moderate Agreement","Moderate Agreement","Very Strong Agreement","Strong Agreement","Very Strong Agreement","Very Strong Agreement","Strong Agreement","Moderate Disagreement","Very Strong Agreement","Moderate Agreement","Moderate Agreement","Strong Agreement","Very Strong Agreement","Strong Agreement"
"55","A15XV3HYP99W8T:339ANSOTR68OYV977IZ6XUFNHLVIK8","1",2,7,3,"50","<p style=""font-size:100px""><b>D</b></p><p style=""position: absolute; top: 30px; right: 30px; text-align:right; font-size:50px"""">N = 3</p>","D",0,NA,NA,0,"agree",16,18,18,10,17,"30","Male","very like the study","Slight Agreement","Very Strong Agreement","Moderate Agreement","Very Strong Agreement","Moderate Agreement","Moderate Agreement","Very Strong Agreement","Strong Agreement","Very Strong Agreement","Very Strong Agreement","Strong Agreement","Moderate Disagreement","Very Strong Agreement","Moderate Agreement","Moderate Agreement","Strong Agreement","Very Strong Agreement","Strong Agreement"
"56","A15XV3HYP99W8T:339ANSOTR68OYV977IZ6XUFNHLVIK8","1",2,8,3,"50","<p style=""font-size:100px""><b>D</b></p><p style=""position: absolute; top: 30px; right: 30px; text-align:right; font-size:50px"""">N = 3</p>","D",0,NA,NA,0,"agree",16,18,18,10,17,"30","Male","very like the study","Slight Agreement","Very Strong Agreement","Moderate Agreement","Very Strong Agreement","Moderate Agreement","Moderate Agreement","Very Strong Agreement","Strong Agreement","Very Strong Agreement","Very Strong Agreement","Strong Agreement","Moderate Disagreement","Very Strong Agreement","Moderate Agreement","Moderate Agreement","Strong Agreement","Very Strong Agreement","Strong Agreement"
"57","A15XV3HYP99W8T:339ANSOTR68OYV977IZ6XUFNHLVIK8","1",2,9,3,"50","<p style=""font-size:100px""><b>v</b></p><p style=""position: absolute; top: 30px; right: 30px; text-align:right; font-size:50px"""">N = 3</p>","v",0,NA,NA,0,"agree",16,18,18,10,17,"30","Male","very like the study","Slight Agreement","Very Strong Agreement","Moderate Agreement","Very Strong Agreement","Moderate Agreement","Moderate Agreement","Very Strong Agreement","Strong Agreement","Very Strong Agreement","Very Strong Agreement","Strong Agreement","Moderate Disagreement","Very Strong Agreement","Moderate Agreement","Moderate Agreement","Strong Agreement","Very Strong Agreement","Strong Agreement"
"58","A15XV3HYP99W8T:339ANSOTR68OYV977IZ6XUFNHLVIK8","1",2,10,3,"50","<p style=""font-size:100px""><b>D</b></p><p style=""position: absolute; top: 30px; right: 30px; text-align:right; font-size:50px"""">N = 3</p>","D",0,NA,NA,0,"agree",16,18,18,10,17,"30","Male","very like the study","Slight Agreement","Very Strong Agreement","Moderate Agreement","Very Strong Agreement","Moderate Agreement","Moderate Agreement","Very Strong Agreement","Strong Agreement","Very Strong Agreement","Very Strong Agreement","Strong Agreement","Moderate Disagreement","Very Strong Agreement","Moderate Agreement","Moderate Agreement","Strong Agreement","Very Strong Agreement","Strong Agreement"
"59","A15XV3HYP99W8T:339ANSOTR68OYV977IZ6XUFNHLVIK8","1",2,11,3,"50","<p style=""font-size:100px""><b>D</b></p><p style=""position: absolute; top: 30px; right: 30px; text-align:right; font-size:50px"""">N = 3</p>","D",0,73,234,1,"agree",16,18,18,10,17,"30","Male","very like the study","Slight Agreement","Very Strong Agreement","Moderate Agreement","Very Strong Agreement","Moderate Agreement","Moderate Agreement","Very Strong Agreement","Strong Agreement","Very Strong Agreement","Very Strong Agreement","Strong Agreement","Moderate Disagreement","Very Strong Agreement","Moderate Agreement","Moderate Agreement","Strong Agreement","Very Strong Agreement","Strong Agreement"
"60","A15XV3HYP99W8T:339ANSOTR68OYV977IZ6XUFNHLVIK8","1",2,12,3,"50","<p style=""font-size:100px""><b>G</b></p><p style=""position: absolute; top: 30px; right: 30px; text-align:right; font-size:50px"""">N = 3</p>","G",0,73,719,1,"agree",16,18,18,10,17,"30","Male","very like the study","Slight Agreement","Very Strong Agreement","Moderate Agreement","Very Strong Agreement","Moderate Agreement","Moderate Agreement","Very Strong Agreement","Strong Agreement","Very Strong Agreement","Very Strong Agreement","Strong Agreement","Moderate Disagreement","Very Strong Agreement","Moderate Agreement","Moderate Agreement","Strong Agreement","Very Strong Agreement","Strong Agreement"
"61","A15XV3HYP99W8T:339ANSOTR68OYV977IZ6XUFNHLVIK8","1",3,1,3,"5","<p style=""font-size:100px""><b>G</b></p><p style=""position: absolute; top: 30px; right: 30px; text-align:right; font-size:50px"""">N = 3</p>","G",0,69,138,0,"agree",19,17,17,12,12,"30","Male","very like the study","Slight Agreement","Very Strong Agreement","Moderate Agreement","Very Strong Agreement","Moderate Agreement","Moderate Agreement","Very Strong Agreement","Strong Agreement","Very Strong Agreement","Very Strong Agreement","Strong Agreement","Moderate Disagreement","Very Strong Agreement","Moderate Agreement","Moderate Agreement","Strong Agreement","Very Strong Agreement","Strong Agreement"
"62","A15XV3HYP99W8T:339ANSOTR68OYV977IZ6XUFNHLVIK8","1",3,2,3,"5","<p style=""font-size:100px""><b>V</b></p><p style=""position: absolute; top: 30px; right: 30px; text-align:right; font-size:50px"""">N = 3</p>","V",0,69,75,0,"agree",19,17,17,12,12,"30","Male","very like the study","Slight Agreement","Very Strong Agreement","Moderate Agreement","Very Strong Agreement","Moderate Agreement","Moderate Agreement","Very Strong Agreement","Strong Agreement","Very Strong Agreement","Very Strong Agreement","Strong Agreement","Moderate Disagreement","Very Strong Agreement","Moderate Agreement","Moderate Agreement","Strong Agreement","Very Strong Agreement","Strong Agreement"
"63","A15XV3HYP99W8T:339ANSOTR68OYV977IZ6XUFNHLVIK8","1",3,3,3,"5","<p style=""font-size:100px""><b>D</b></p><p style=""position: absolute; top: 30px; right: 30px; text-align:right; font-size:50px"""">N = 3</p>","D",0,69,29,0,"agree",19,17,17,12,12,"30","Male","very like the study","Slight Agreement","Very Strong Agreement","Moderate Agreement","Very Strong Agreement","Moderate Agreement","Moderate Agreement","Very Strong Agreement","Strong Agreement","Very Strong Agreement","Very Strong Agreement","Strong Agreement","Moderate Disagreement","Very Strong Agreement","Moderate Agreement","Moderate Agreement","Strong Agreement","Very Strong Agreement","Strong Agreement"
"64","A15XV3HYP99W8T:339ANSOTR68OYV977IZ6XUFNHLVIK8","1",3,4,3,"5","<p style=""font-size:100px""><b>d</b></p><p style=""position: absolute; top: 30px; right: 30px; text-align:right; font-size:50px"""">N = 3</p>","d",0,69,13,0,"agree",19,17,17,12,12,"30","Male","very like the study","Slight Agreement","Very Strong Agreement","Moderate Agreement","Very Strong Agreement","Moderate Agreement","Moderate Agreement","Very Strong Agreement","Strong Agreement","Very Strong Agreement","Very Strong Agreement","Strong Agreement","Moderate Disagreement","Very Strong Agreement","Moderate Agreement","Moderate Agreement","Strong Agreement","Very Strong Agreement","Strong Agreement"
"65","A15XV3HYP99W8T:339ANSOTR68OYV977IZ6XUFNHLVIK8","1",3,5,3,"5","<p style=""font-size:100px""><b>p</b></p><p style=""position: absolute; top: 30px; right: 30px; text-align:right; font-size:50px"""">N = 3</p>","p",0,69,0,0,"agree",19,17,17,12,12,"30","Male","very like the study","Slight Agreement","Very Strong Agreement","Moderate Agreement","Very Strong Agreement","Moderate Agreement","Moderate Agreement","Very Strong Agreement","Strong Agreement","Very Strong Agreement","Very Strong Agreement","Strong Agreement","Moderate Disagreement","Very Strong Agreement","Moderate Agreement","Moderate Agreement","Strong Agreement","Very Strong Agreement","Strong Agreement"
"66","A15XV3HYP99W8T:339ANSOTR68OYV977IZ6XUFNHLVIK8","1",3,6,3,"5","<p style=""font-size:100px""><b>D</b></p><p style=""position: absolute; top: 30px; right: 30px; text-align:right; font-size:50px"""">N = 3</p>","D",0,73,309,1,"agree",19,17,17,12,12,"30","Male","very like the study","Slight Agreement","Very Strong Agreement","Moderate Agreement","Very Strong Agreement","Moderate Agreement","Moderate Agreement","Very Strong Agreement","Strong Agreement","Very Strong Agreement","Very Strong Agreement","Strong Agreement","Moderate Disagreement","Very Strong Agreement","Moderate Agreement","Moderate Agreement","Strong Agreement","Very Strong Agreement","Strong Agreement"
"67","A15XV3HYP99W8T:339ANSOTR68OYV977IZ6XUFNHLVIK8","1",3,7,3,"5","<p style=""font-size:100px""><b>v</b></p><p style=""position: absolute; top: 30px; right: 30px; text-align:right; font-size:50px"""">N = 3</p>","v",0,73,78,1,"agree",19,17,17,12,12,"30","Male","very like the study","Slight Agreement","Very Strong Agreement","Moderate Agreement","Very Strong Agreement","Moderate Agreement","Moderate Agreement","Very Strong Agreement","Strong Agreement","Very Strong Agreement","Very Strong Agreement","Strong Agreement","Moderate Disagreement","Very Strong Agreement","Moderate Agreement","Moderate Agreement","Strong Agreement","Very Strong Agreement","Strong Agreement"
"68","A15XV3HYP99W8T:339ANSOTR68OYV977IZ6XUFNHLVIK8","1",3,8,3,"5","<p style=""font-size:100px""><b>p</b></p><p style=""position: absolute; top: 30px; right: 30px; text-align:right; font-size:50px"""">N = 3</p>","p",0,73,24,1,"agree",19,17,17,12,12,"30","Male","very like the study","Slight Agreement","Very Strong Agreement","Moderate Agreement","Very Strong Agreement","Moderate Agreement","Moderate Agreement","Very Strong Agreement","Strong Agreement","Very Strong Agreement","Very Strong Agreement","Strong Agreement","Moderate Disagreement","Very Strong Agreement","Moderate Agreement","Moderate Agreement","Strong Agreement","Very Strong Agreement","Strong Agreement"
"69","A15XV3HYP99W8T:339ANSOTR68OYV977IZ6XUFNHLVIK8","1",3,9,3,"5","<p style=""font-size:100px""><b>t</b></p><p style=""position: absolute; top: 30px; right: 30px; text-align:right; font-size:50px"""">N = 3</p>","t",0,69,0,0,"agree",19,17,17,12,12,"30","Male","very like the study","Slight Agreement","Very Strong Agreement","Moderate Agreement","Very Strong Agreement","Moderate Agreement","Moderate Agreement","Very Strong Agreement","Strong Agreement","Very Strong Agreement","Very Strong Agreement","Strong Agreement","Moderate Disagreement","Very Strong Agreement","Moderate Agreement","Moderate Agreement","Strong Agreement","Very Strong Agreement","Strong Agreement"
"70","A15XV3HYP99W8T:339ANSOTR68OYV977IZ6XUFNHLVIK8","1",3,10,3,"5","<p style=""font-size:100px""><b>v</b></p><p style=""position: absolute; top: 30px; right: 30px; text-align:right; font-size:50px"""">N = 3</p>","v",0,73,191,1,"agree",19,17,17,12,12,"30","Male","very like the study","Slight Agreement","Very Strong Agreement","Moderate Agreement","Very Strong Agreement","Moderate Agreement","Moderate Agreement","Very Strong Agreement","Strong Agreement","Very Strong Agreement","Very Strong Agreement","Strong Agreement","Moderate Disagreement","Very Strong Agreement","Moderate Agreement","Moderate Agreement","Strong Agreement","Very Strong Agreement","Strong Agreement"
"71","A15XV3HYP99W8T:339ANSOTR68OYV977IZ6XUFNHLVIK8","1",3,11,3,"5","<p style=""font-size:100px""><b>p</b></p><p style=""position: absolute; top: 30px; right: 30px; text-align:right; font-size:50px"""">N = 3</p>","p",0,73,166,1,"agree",19,17,17,12,12,"30","Male","very like the study","Slight Agreement","Very Strong Agreement","Moderate Agreement","Very Strong Agreement","Moderate Agreement","Moderate Agreement","Very Strong Agreement","Strong Agreement","Very Strong Agreement","Very Strong Agreement","Strong Agreement","Moderate Disagreement","Very Strong Agreement","Moderate Agreement","Moderate Agreement","Strong Agreement","Very Strong Agreement","Strong Agreement"
"72","A15XV3HYP99W8T:339ANSOTR68OYV977IZ6XUFNHLVIK8","1",3,12,3,"5","<p style=""font-size:100px""><b>p</b></p><p style=""position: absolute; top: 30px; right: 30px; text-align:right; font-size:50px"""">N = 3</p>","p",0,73,2,1,"agree",19,17,17,12,12,"30","Male","very like the study","Slight Agreement","Very Strong Agreement","Moderate Agreement","Very Strong Agreement","Moderate Agreement","Moderate Agreement","Very Strong Agreement","Strong Agreement","Very Strong Agreement","Very Strong Agreement","Strong Agreement","Moderate Disagreement","Very Strong Agreement","Moderate Agreement","Moderate Agreement","Strong Agreement","Very Strong Agreement","Strong Agreement"
"73","A15XV3HYP99W8T:339ANSOTR68OYV977IZ6XUFNHLVIK8","1",4,1,1,"5","<p style=""font-size:100px""><b>G</b></p><p style=""position: absolute; top: 30px; right: 30px; text-align:right; font-size:50px"""">N = 1</p>","G",0,NA,NA,0,"agree",18,18,19,13,19,"30","Male","very like the study","Slight Agreement","Very Strong Agreement","Moderate Agreement","Very Strong Agreement","Moderate Agreement","Moderate Agreement","Very Strong Agreement","Strong Agreement","Very Strong Agreement","Very Strong Agreement","Strong Agreement","Moderate Disagreement","Very Strong Agreement","Moderate Agreement","Moderate Agreement","Strong Agreement","Very Strong Agreement","Strong Agreement"
"74","A15XV3HYP99W8T:339ANSOTR68OYV977IZ6XUFNHLVIK8","1",4,2,1,"5","<p style=""font-size:100px""><b>V</b></p><p style=""position: absolute; top: 30px; right: 30px; text-align:right; font-size:50px"""">N = 1</p>","V",0,NA,NA,0,"agree",18,18,19,13,19,"30","Male","very like the study","Slight Agreement","Very Strong Agreement","Moderate Agreement","Very Strong Agreement","Moderate Agreement","Moderate Agreement","Very Strong Agreement","Strong Agreement","Very Strong Agreement","Very Strong Agreement","Strong Agreement","Moderate Disagreement","Very Strong Agreement","Moderate Agreement","Moderate Agreement","Strong Agreement","Very Strong Agreement","Strong Agreement"
"75","A15XV3HYP99W8T:339ANSOTR68OYV977IZ6XUFNHLVIK8","1",4,3,1,"5","<p style=""font-size:100px""><b>B</b></p><p style=""position: absolute; top: 30px; right: 30px; text-align:right; font-size:50px"""">N = 1</p>","B",0,73,260,1,"agree",18,18,19,13,19,"30","Male","very like the study","Slight Agreement","Very Strong Agreement","Moderate Agreement","Very Strong Agreement","Moderate Agreement","Moderate Agreement","Very Strong Agreement","Strong Agreement","Very Strong Agreement","Very Strong Agreement","Strong Agreement","Moderate Disagreement","Very Strong Agreement","Moderate Agreement","Moderate Agreement","Strong Agreement","Very Strong Agreement","Strong Agreement"
"76","A15XV3HYP99W8T:339ANSOTR68OYV977IZ6XUFNHLVIK8","1",4,4,1,"5","<p style=""font-size:100px""><b>V</b></p><p style=""position: absolute; top: 30px; right: 30px; text-align:right; font-size:50px"""">N = 1</p>","V",0,69,193,0,"agree",18,18,19,13,19,"30","Male","very like the study","Slight Agreement","Very Strong Agreement","Moderate Agreement","Very Strong Agreement","Moderate Agreement","Moderate Agreement","Very Strong Agreement","Strong Agreement","Very Strong Agreement","Very Strong Agreement","Strong Agreement","Moderate Disagreement","Very Strong Agreement","Moderate Agreement","Moderate Agreement","Strong Agreement","Very Strong Agreement","Strong Agreement"
"77","A15XV3HYP99W8T:339ANSOTR68OYV977IZ6XUFNHLVIK8","1",4,5,1,"5","<p style=""font-size:100px""><b>V</b></p><p style=""position: absolute; top: 30px; right: 30px; text-align:right; font-size:50px"""">N = 1</p>","V",0,69,0,0,"agree",18,18,19,13,19,"30","Male","very like the study","Slight Agreement","Very Strong Agreement","Moderate Agreement","Very Strong Agreement","Moderate Agreement","Moderate Agreement","Very Strong Agreement","Strong Agreement","Very Strong Agreement","Very Strong Agreement","Strong Agreement","Moderate Disagreement","Very Strong Agreement","Moderate Agreement","Moderate Agreement","Strong Agreement","Very Strong Agreement","Strong Agreement"
"78","A15XV3HYP99W8T:339ANSOTR68OYV977IZ6XUFNHLVIK8","1",4,6,1,"5","<p style=""font-size:100px""><b>T</b></p><p style=""position: absolute; top: 30px; right: 30px; text-align:right; font-size:50px"""">N = 1</p>","T",0,73,156,1,"agree",18,18,19,13,19,"30","Male","very like the study","Slight Agreement","Very Strong Agreement","Moderate Agreement","Very Strong Agreement","Moderate Agreement","Moderate Agreement","Very Strong Agreement","Strong Agreement","Very Strong Agreement","Very Strong Agreement","Strong Agreement","Moderate Disagreement","Very Strong Agreement","Moderate Agreement","Moderate Agreement","Strong Agreement","Very Strong Agreement","Strong Agreement"
"79","A15XV3HYP99W8T:339ANSOTR68OYV977IZ6XUFNHLVIK8","1",4,7,1,"5","<p style=""font-size:100px""><b>T</b></p><p style=""position: absolute; top: 30px; right: 30px; text-align:right; font-size:50px"""">N = 1</p>","T",0,69,176,0,"agree",18,18,19,13,19,"30","Male","very like the study","Slight Agreement","Very Strong Agreement","Moderate Agreement","Very Strong Agreement","Moderate Agreement","Moderate Agreement","Very Strong Agreement","Strong Agreement","Very Strong Agreement","Very Strong Agreement","Strong Agreement","Moderate Disagreement","Very Strong Agreement","Moderate Agreement","Moderate Agreement","Strong Agreement","Very Strong Agreement","Strong Agreement"
"80","A15XV3HYP99W8T:339ANSOTR68OYV977IZ6XUFNHLVIK8","1",4,8,1,"5","<p style=""font-size:100px""><b>T</b></p><p style=""position: absolute; top: 30px; right: 30px; text-align:right; font-size:50px"""">N = 1</p>","T",0,73,308,1,"agree",18,18,19,13,19,"30","Male","very like the study","Slight Agreement","Very Strong Agreement","Moderate Agreement","Very Strong Agreement","Moderate Agreement","Moderate Agreement","Very Strong Agreement","Strong Agreement","Very Strong Agreement","Very Strong Agreement","Strong Agreement","Moderate Disagreement","Very Strong Agreement","Moderate Agreement","Moderate Agreement","Strong Agreement","Very Strong Agreement","Strong Agreement"
"81","A15XV3HYP99W8T:339ANSOTR68OYV977IZ6XUFNHLVIK8","1",4,9,1,"5","<p style=""font-size:100px""><b>b</b></p><p style=""position: absolute; top: 30px; right: 30px; text-align:right; font-size:50px"""">N = 1</p>","b",0,73,306,1,"agree",18,18,19,13,19,"30","Male","very like the study","Slight Agreement","Very Strong Agreement","Moderate Agreement","Very Strong Agreement","Moderate Agreement","Moderate Agreement","Very Strong Agreement","Strong Agreement","Very Strong Agreement","Very Strong Agreement","Strong Agreement","Moderate Disagreement","Very Strong Agreement","Moderate Agreement","Moderate Agreement","Strong Agreement","Very Strong Agreement","Strong Agreement"
"82","A15XV3HYP99W8T:339ANSOTR68OYV977IZ6XUFNHLVIK8","1",4,10,1,"5","<p style=""font-size:100px""><b>v</b></p><p style=""position: absolute; top: 30px; right: 30px; text-align:right; font-size:50px"""">N = 1</p>","v",0,69,115,0,"agree",18,18,19,13,19,"30","Male","very like the study","Slight Agreement","Very Strong Agreement","Moderate Agreement","Very Strong Agreement","Moderate Agreement","Moderate Agreement","Very Strong Agreement","Strong Agreement","Very Strong Agreement","Very Strong Agreement","Strong Agreement","Moderate Disagreement","Very Strong Agreement","Moderate Agreement","Moderate Agreement","Strong Agreement","Very Strong Agreement","Strong Agreement"
"83","A15XV3HYP99W8T:339ANSOTR68OYV977IZ6XUFNHLVIK8","1",4,11,1,"5","<p style=""font-size:100px""><b>v</b></p><p style=""position: absolute; top: 30px; right: 30px; text-align:right; font-size:50px"""">N = 1</p>","v",0,69,263,0,"agree",18,18,19,13,19,"30","Male","very like the study","Slight Agreement","Very Strong Agreement","Moderate Agreement","Very Strong Agreement","Moderate Agreement","Moderate Agreement","Very Strong Agreement","Strong Agreement","Very Strong Agreement","Very Strong Agreement","Strong Agreement","Moderate Disagreement","Very Strong Agreement","Moderate Agreement","Moderate Agreement","Strong Agreement","Very Strong Agreement","Strong Agreement"
"84","A15XV3HYP99W8T:339ANSOTR68OYV977IZ6XUFNHLVIK8","1",4,12,1,"5","<p style=""font-size:100px""><b>t</b></p><p style=""position: absolute; top: 30px; right: 30px; text-align:right; font-size:50px"""">N = 1</p>","t",0,73,405,1,"agree",18,18,19,13,19,"30","Male","very like the study","Slight Agreement","Very Strong Agreement","Moderate Agreement","Very Strong Agreement","Moderate Agreement","Moderate Agreement","Very Strong Agreement","Strong Agreement","Very Strong Agreement","Very Strong Agreement","Strong Agreement","Moderate Disagreement","Very Strong Agreement","Moderate Agreement","Moderate Agreement","Strong Agreement","Very Strong Agreement","Strong Agreement"
"85","A15XV3HYP99W8T:339ANSOTR68OYV977IZ6XUFNHLVIK8","1",5,1,2,"5","<p style=""font-size:100px""><b>V</b></p><p style=""position: absolute; top: 30px; right: 30px; text-align:right; font-size:50px"""">N = 2</p>","V",0,69,180,0,"agree",20,19,16,12,9,"30","Male","very like the study","Slight Agreement","Very Strong Agreement","Moderate Agreement","Very Strong Agreement","Moderate Agreement","Moderate Agreement","Very Strong Agreement","Strong Agreement","Very Strong Agreement","Very Strong Agreement","Strong Agreement","Moderate Disagreement","Very Strong Agreement","Moderate Agreement","Moderate Agreement","Strong Agreement","Very Strong Agreement","Strong Agreement"
"86","A15XV3HYP99W8T:339ANSOTR68OYV977IZ6XUFNHLVIK8","1",5,2,2,"5","<p style=""font-size:100px""><b>G</b></p><p style=""position: absolute; top: 30px; right: 30px; text-align:right; font-size:50px"""">N = 2</p>","G",0,73,13,1,"agree",20,19,16,12,9,"30","Male","very like the study","Slight Agreement","Very Strong Agreement","Moderate Agreement","Very Strong Agreement","Moderate Agreement","Moderate Agreement","Very Strong Agreement","Strong Agreement","Very Strong Agreement","Very Strong Agreement","Strong Agreement","Moderate Disagreement","Very Strong Agreement","Moderate Agreement","Moderate Agreement","Strong Agreement","Very Strong Agreement","Strong Agreement"
"87","A15XV3HYP99W8T:339ANSOTR68OYV977IZ6XUFNHLVIK8","1",5,3,2,"5","<p style=""font-size:100px""><b>d</b></p><p style=""position: absolute; top: 30px; right: 30px; text-align:right; font-size:50px"""">N = 2</p>","d",0,73,140,1,"agree",20,19,16,12,9,"30","Male","very like the study","Slight Agreement","Very Strong Agreement","Moderate Agreement","Very Strong Agreement","Moderate Agreement","Moderate Agreement","Very Strong Agreement","Strong Agreement","Very Strong Agreement","Very Strong Agreement","Strong Agreement","Moderate Disagreement","Very Strong Agreement","Moderate Agreement","Moderate Agreement","Strong Agreement","Very Strong Agreement","Strong Agreement"
"88","A15XV3HYP99W8T:339ANSOTR68OYV977IZ6XUFNHLVIK8","1",5,4,2,"5","<p style=""font-size:100px""><b>G</b></p><p style=""position: absolute; top: 30px; right: 30px; text-align:right; font-size:50px"""">N = 2</p>","G",0,73,137,1,"agree",20,19,16,12,9,"30","Male","very like the study","Slight Agreement","Very Strong Agreement","Moderate Agreement","Very Strong Agreement","Moderate Agreement","Moderate Agreement","Very Strong Agreement","Strong Agreement","Very Strong Agreement","Very Strong Agreement","Strong Agreement","Moderate Disagreement","Very Strong Agreement","Moderate Agreement","Moderate Agreement","Strong Agreement","Very Strong Agreement","Strong Agreement"
"89","A15XV3HYP99W8T:339ANSOTR68OYV977IZ6XUFNHLVIK8","1",5,5,2,"5","<p style=""font-size:100px""><b>t</b></p><p style=""position: absolute; top: 30px; right: 30px; text-align:right; font-size:50px"""">N = 2</p>","t",0,69,226,0,"agree",20,19,16,12,9,"30","Male","very like the study","Slight Agreement","Very Strong Agreement","Moderate Agreement","Very Strong Agreement","Moderate Agreement","Moderate Agreement","Very Strong Agreement","Strong Agreement","Very Strong Agreement","Very Strong Agreement","Strong Agreement","Moderate Disagreement","Very Strong Agreement","Moderate Agreement","Moderate Agreement","Strong Agreement","Very Strong Agreement","Strong Agreement"
"90","A15XV3HYP99W8T:339ANSOTR68OYV977IZ6XUFNHLVIK8","1",5,6,2,"5","<p style=""font-size:100px""><b>v</b></p><p style=""position: absolute; top: 30px; right: 30px; text-align:right; font-size:50px"""">N = 2</p>","v",0,73,194,1,"agree",20,19,16,12,9,"30","Male","very like the study","Slight Agreement","Very Strong Agreement","Moderate Agreement","Very Strong Agreement","Moderate Agreement","Moderate Agreement","Very Strong Agreement","Strong Agreement","Very Strong Agreement","Very Strong Agreement","Strong Agreement","Moderate Disagreement","Very Strong Agreement","Moderate Agreement","Moderate Agreement","Strong Agreement","Very Strong Agreement","Strong Agreement"
"91","A15XV3HYP99W8T:339ANSOTR68OYV977IZ6XUFNHLVIK8","1",5,7,2,"5","<p style=""font-size:100px""><b>g</b></p><p style=""position: absolute; top: 30px; right: 30px; text-align:right; font-size:50px"""">N = 2</p>","g",0,73,360,1,"agree",20,19,16,12,9,"30","Male","very like the study","Slight Agreement","Very Strong Agreement","Moderate Agreement","Very Strong Agreement","Moderate Agreement","Moderate Agreement","Very Strong Agreement","Strong Agreement","Very Strong Agreement","Very Strong Agreement","Strong Agreement","Moderate Disagreement","Very Strong Agreement","Moderate Agreement","Moderate Agreement","Strong Agreement","Very Strong Agreement","Strong Agreement"
"92","A15XV3HYP99W8T:339ANSOTR68OYV977IZ6XUFNHLVIK8","1",5,8,2,"5","<p style=""font-size:100px""><b>T</b></p><p style=""position: absolute; top: 30px; right: 30px; text-align:right; font-size:50px"""">N = 2</p>","T",0,73,317,1,"agree",20,19,16,12,9,"30","Male","very like the study","Slight Agreement","Very Strong Agreement","Moderate Agreement","Very Strong Agreement","Moderate Agreement","Moderate Agreement","Very Strong Agreement","Strong Agreement","Very Strong Agreement","Very Strong Agreement","Strong Agreement","Moderate Disagreement","Very Strong Agreement","Moderate Agreement","Moderate Agreement","Strong Agreement","Very Strong Agreement","Strong Agreement"
"93","A15XV3HYP99W8T:339ANSOTR68OYV977IZ6XUFNHLVIK8","1",5,9,2,"5","<p style=""font-size:100px""><b>g</b></p><p style=""position: absolute; top: 30px; right: 30px; text-align:right; font-size:50px"""">N = 2</p>","g",0,69,81,0,"agree",20,19,16,12,9,"30","Male","very like the study","Slight Agreement","Very Strong Agreement","Moderate Agreement","Very Strong Agreement","Moderate Agreement","Moderate Agreement","Very Strong Agreement","Strong Agreement","Very Strong Agreement","Very Strong Agreement","Strong Agreement","Moderate Disagreement","Very Strong Agreement","Moderate Agreement","Moderate Agreement","Strong Agreement","Very Strong Agreement","Strong Agreement"
"94","A15XV3HYP99W8T:339ANSOTR68OYV977IZ6XUFNHLVIK8","1",5,10,2,"5","<p style=""font-size:100px""><b>T</b></p><p style=""position: absolute; top: 30px; right: 30px; text-align:right; font-size:50px"""">N = 2</p>","T",0,69,51,0,"agree",20,19,16,12,9,"30","Male","very like the study","Slight Agreement","Very Strong Agreement","Moderate Agreement","Very Strong Agreement","Moderate Agreement","Moderate Agreement","Very Strong Agreement","Strong Agreement","Very Strong Agreement","Very Strong Agreement","Strong Agreement","Moderate Disagreement","Very Strong Agreement","Moderate Agreement","Moderate Agreement","Strong Agreement","Very Strong Agreement","Strong Agreement"
"95","A15XV3HYP99W8T:339ANSOTR68OYV977IZ6XUFNHLVIK8","1",5,11,2,"5","<p style=""font-size:100px""><b>g</b></p><p style=""position: absolute; top: 30px; right: 30px; text-align:right; font-size:50px"""">N = 2</p>","g",0,69,61,0,"agree",20,19,16,12,9,"30","Male","very like the study","Slight Agreement","Very Strong Agreement","Moderate Agreement","Very Strong Agreement","Moderate Agreement","Moderate Agreement","Very Strong Agreement","Strong Agreement","Very Strong Agreement","Very Strong Agreement","Strong Agreement","Moderate Disagreement","Very Strong Agreement","Moderate Agreement","Moderate Agreement","Strong Agreement","Very Strong Agreement","Strong Agreement"
"96","A15XV3HYP99W8T:339ANSOTR68OYV977IZ6XUFNHLVIK8","1",5,12,2,"5","<p style=""font-size:100px""><b>d</b></p><p style=""position: absolute; top: 30px; right: 30px; text-align:right; font-size:50px"""">N = 2</p>","d",0,73,241,1,"agree",20,19,16,12,9,"30","Male","very like the study","Slight Agreement","Very Strong Agreement","Moderate Agreement","Very Strong Agreement","Moderate Agreement","Moderate Agreement","Very Strong Agreement","Strong Agreement","Very Strong Agreement","Very Strong Agreement","Strong Agreement","Moderate Disagreement","Very Strong Agreement","Moderate Agreement","Moderate Agreement","Strong Agreement","Very Strong Agreement","Strong Agreement"
"97","A15XV3HYP99W8T:339ANSOTR68OYV977IZ6XUFNHLVIK8","1",6,1,1,"50","<p style=""font-size:100px""><b>t</b></p><p style=""position: absolute; top: 30px; right: 30px; text-align:right; font-size:50px"""">N = 1</p>","t",0,69,2,0,"agree",19,19,19,12,7,"30","Male","very like the study","Slight Agreement","Very Strong Agreement","Moderate Agreement","Very Strong Agreement","Moderate Agreement","Moderate Agreement","Very Strong Agreement","Strong Agreement","Very Strong Agreement","Very Strong Agreement","Strong Agreement","Moderate Disagreement","Very Strong Agreement","Moderate Agreement","Moderate Agreement","Strong Agreement","Very Strong Agreement","Strong Agreement"
"98","A15XV3HYP99W8T:339ANSOTR68OYV977IZ6XUFNHLVIK8","1",6,2,1,"50","<p style=""font-size:100px""><b>t</b></p><p style=""position: absolute; top: 30px; right: 30px; text-align:right; font-size:50px"""">N = 1</p>","t",0,73,146,1,"agree",19,19,19,12,7,"30","Male","very like the study","Slight Agreement","Very Strong Agreement","Moderate Agreement","Very Strong Agreement","Moderate Agreement","Moderate Agreement","Very Strong Agreement","Strong Agreement","Very Strong Agreement","Very Strong Agreement","Strong Agreement","Moderate Disagreement","Very Strong Agreement","Moderate Agreement","Moderate Agreement","Strong Agreement","Very Strong Agreement","Strong Agreement"
"99","A15XV3HYP99W8T:339ANSOTR68OYV977IZ6XUFNHLVIK8","1",6,3,1,"50","<p style=""font-size:100px""><b>P</b></p><p style=""position: absolute; top: 30px; right: 30px; text-align:right; font-size:50px"""">N = 1</p>","P",0,69,157,0,"agree",19,19,19,12,7,"30","Male","very like the study","Slight Agreement","Very Strong Agreement","Moderate Agreement","Very Strong Agreement","Moderate Agreement","Moderate Agreement","Very Strong Agreement","Strong Agreement","Very Strong Agreement","Very Strong Agreement","Strong Agreement","Moderate Disagreement","Very Strong Agreement","Moderate Agreement","Moderate Agreement","Strong Agreement","Very Strong Agreement","Strong Agreement"
"100","A15XV3HYP99W8T:339ANSOTR68OYV977IZ6XUFNHLVIK8","1",6,4,1,"50","<p style=""font-size:100px""><b>V</b></p><p style=""position: absolute; top: 30px; right: 30px; text-align:right; font-size:50px"""">N = 1</p>","V",0,73,104,1,"agree",19,19,19,12,7,"30","Male","very like the study","Slight Agreement","Very Strong Agreement","Moderate Agreement","Very Strong Agreement","Moderate Agreement","Moderate Agreement","Very Strong Agreement","Strong Agreement","Very Strong Agreement","Very Strong Agreement","Strong Agreement","Moderate Disagreement","Very Strong Agreement","Moderate Agreement","Moderate Agreement","Strong Agreement","Very Strong Agreement","Strong Agreement"
"101","A15XV3HYP99W8T:339ANSOTR68OYV977IZ6XUFNHLVIK8","1",6,5,1,"50","<p style=""font-size:100px""><b>V</b></p><p style=""position: absolute; top: 30px; right: 30px; text-align:right; font-size:50px"""">N = 1</p>","V",0,73,214,1,"agree",19,19,19,12,7,"30","Male","very like the study","Slight Agreement","Very Strong Agreement","Moderate Agreement","Very Strong Agreement","Moderate Agreement","Moderate Agreement","Very Strong Agreement","Strong Agreement","Very Strong Agreement","Very Strong Agreement","Strong Agreement","Moderate Disagreement","Very Strong Agreement","Moderate Agreement","Moderate Agreement","Strong Agreement","Very Strong Agreement","Strong Agreement"
"102","A15XV3HYP99W8T:339ANSOTR68OYV977IZ6XUFNHLVIK8","1",6,6,1,"50","<p style=""font-size:100px""><b>b</b></p><p style=""position: absolute; top: 30px; right: 30px; text-align:right; font-size:50px"""">N = 1</p>","b",0,73,7,1,"agree",19,19,19,12,7,"30","Male","very like the study","Slight Agreement","Very Strong Agreement","Moderate Agreement","Very Strong Agreement","Moderate Agreement","Moderate Agreement","Very Strong Agreement","Strong Agreement","Very Strong Agreement","Very Strong Agreement","Strong Agreement","Moderate Disagreement","Very Strong Agreement","Moderate Agreement","Moderate Agreement","Strong Agreement","Very Strong Agreement","Strong Agreement"
"103","A15XV3HYP99W8T:339ANSOTR68OYV977IZ6XUFNHLVIK8","1",6,7,1,"50","<p style=""font-size:100px""><b>g</b></p><p style=""position: absolute; top: 30px; right: 30px; text-align:right; font-size:50px"""">N = 1</p>","g",0,73,39,1,"agree",19,19,19,12,7,"30","Male","very like the study","Slight Agreement","Very Strong Agreement","Moderate Agreement","Very Strong Agreement","Moderate Agreement","Moderate Agreement","Very Strong Agreement","Strong Agreement","Very Strong Agreement","Very Strong Agreement","Strong Agreement","Moderate Disagreement","Very Strong Agreement","Moderate Agreement","Moderate Agreement","Strong Agreement","Very Strong Agreement","Strong Agreement"
"104","A15XV3HYP99W8T:339ANSOTR68OYV977IZ6XUFNHLVIK8","1",6,8,1,"50","<p style=""font-size:100px""><b>V</b></p><p style=""position: absolute; top: 30px; right: 30px; text-align:right; font-size:50px"""">N = 1</p>","V",0,69,71,0,"agree",19,19,19,12,7,"30","Male","very like the study","Slight Agreement","Very Strong Agreement","Moderate Agreement","Very Strong Agreement","Moderate Agreement","Moderate Agreement","Very Strong Agreement","Strong Agreement","Very Strong Agreement","Very Strong Agreement","Strong Agreement","Moderate Disagreement","Very Strong Agreement","Moderate Agreement","Moderate Agreement","Strong Agreement","Very Strong Agreement","Strong Agreement"
"105","A15XV3HYP99W8T:339ANSOTR68OYV977IZ6XUFNHLVIK8","1",6,9,1,"50","<p style=""font-size:100px""><b>g</b></p><p style=""position: absolute; top: 30px; right: 30px; text-align:right; font-size:50px"""">N = 1</p>","g",0,69,72,0,"agree",19,19,19,12,7,"30","Male","very like the study","Slight Agreement","Very Strong Agreement","Moderate Agreement","Very Strong Agreement","Moderate Agreement","Moderate Agreement","Very Strong Agreement","Strong Agreement","Very Strong Agreement","Very Strong Agreement","Strong Agreement","Moderate Disagreement","Very Strong Agreement","Moderate Agreement","Moderate Agreement","Strong Agreement","Very Strong Agreement","Strong Agreement"
"106","A15XV3HYP99W8T:339ANSOTR68OYV977IZ6XUFNHLVIK8","1",6,10,1,"50","<p style=""font-size:100px""><b>V</b></p><p style=""position: absolute; top: 30px; right: 30px; text-align:right; font-size:50px"""">N = 1</p>","V",0,69,3,0,"agree",19,19,19,12,7,"30","Male","very like the study","Slight Agreement","Very Strong Agreement","Moderate Agreement","Very Strong Agreement","Moderate Agreement","Moderate Agreement","Very Strong Agreement","Strong Agreement","Very Strong Agreement","Very Strong Agreement","Strong Agreement","Moderate Disagreement","Very Strong Agreement","Moderate Agreement","Moderate Agreement","Strong Agreement","Very Strong Agreement","Strong Agreement"
"107","A15XV3HYP99W8T:339ANSOTR68OYV977IZ6XUFNHLVIK8","1",6,11,1,"50","<p style=""font-size:100px""><b>V</b></p><p style=""position: absolute; top: 30px; right: 30px; text-align:right; font-size:50px"""">N = 1</p>","V",0,69,520,0,"agree",19,19,19,12,7,"30","Male","very like the study","Slight Agreement","Very Strong Agreement","Moderate Agreement","Very Strong Agreement","Moderate Agreement","Moderate Agreement","Very Strong Agreement","Strong Agreement","Very Strong Agreement","Very Strong Agreement","Strong Agreement","Moderate Disagreement","Very Strong Agreement","Moderate Agreement","Moderate Agreement","Strong Agreement","Very Strong Agreement","Strong Agreement"
"108","A15XV3HYP99W8T:339ANSOTR68OYV977IZ6XUFNHLVIK8","1",6,12,1,"50","<p style=""font-size:100px""><b>V</b></p><p style=""position: absolute; top: 30px; right: 30px; text-align:right; font-size:50px"""">N = 1</p>","V",0,73,49,1,"agree",19,19,19,12,7,"30","Male","very like the study","Slight Agreement","Very Strong Agreement","Moderate Agreement","Very Strong Agreement","Moderate Agreement","Moderate Agreement","Very Strong Agreement","Strong Agreement","Very Strong Agreement","Very Strong Agreement","Strong Agreement","Moderate Disagreement","Very Strong Agreement","Moderate Agreement","Moderate Agreement","Strong Agreement","Very Strong Agreement","Strong Agreement"
"109","A15XV3HYP99W8T:339ANSOTR68OYV977IZ6XUFNHLVIK8","2",7,1,2,"5","<p style=""font-size:100px""><b>T</b></p><p style=""position: absolute; top: 30px; right: 30px; text-align:right; font-size:50px"""">N = 2</p>","T",0,73,974,1,"agree",19,18,19,12,10,"30","Male","very like the study","Slight Agreement","Very Strong Agreement","Moderate Agreement","Very Strong Agreement","Moderate Agreement","Moderate Agreement","Very Strong Agreement","Strong Agreement","Very Strong Agreement","Very Strong Agreement","Strong Agreement","Moderate Disagreement","Very Strong Agreement","Moderate Agreement","Moderate Agreement","Strong Agreement","Very Strong Agreement","Strong Agreement"
"110","A15XV3HYP99W8T:339ANSOTR68OYV977IZ6XUFNHLVIK8","2",7,2,2,"5","<p style=""font-size:100px""><b>p</b></p><p style=""position: absolute; top: 30px; right: 30px; text-align:right; font-size:50px"""">N = 2</p>","p",0,73,896,1,"agree",19,18,19,12,10,"30","Male","very like the study","Slight Agreement","Very Strong Agreement","Moderate Agreement","Very Strong Agreement","Moderate Agreement","Moderate Agreement","Very Strong Agreement","Strong Agreement","Very Strong Agreement","Very Strong Agreement","Strong Agreement","Moderate Disagreement","Very Strong Agreement","Moderate Agreement","Moderate Agreement","Strong Agreement","Very Strong Agreement","Strong Agreement"
"111","A15XV3HYP99W8T:339ANSOTR68OYV977IZ6XUFNHLVIK8","2",7,3,2,"5","<p style=""font-size:100px""><b>T</b></p><p style=""position: absolute; top: 30px; right: 30px; text-align:right; font-size:50px"""">N = 2</p>","T",0,NA,NA,0,"agree",19,18,19,12,10,"30","Male","very like the study","Slight Agreement","Very Strong Agreement","Moderate Agreement","Very Strong Agreement","Moderate Agreement","Moderate Agreement","Very Strong Agreement","Strong Agreement","Very Strong Agreement","Very Strong Agreement","Strong Agreement","Moderate Disagreement","Very Strong Agreement","Moderate Agreement","Moderate Agreement","Strong Agreement","Very Strong Agreement","Strong Agreement"
"112","A15XV3HYP99W8T:339ANSOTR68OYV977IZ6XUFNHLVIK8","2",7,4,2,"5","<p style=""font-size:100px""><b>p</b></p><p style=""position: absolute; top: 30px; right: 30px; text-align:right; font-size:50px"""">N = 2</p>","p",0,73,1021,1,"agree",19,18,19,12,10,"30","Male","very like the study","Slight Agreement","Very Strong Agreement","Moderate Agreement","Very Strong Agreement","Moderate Agreement","Moderate Agreement","Very Strong Agreement","Strong Agreement","Very Strong Agreement","Very Strong Agreement","Strong Agreement","Moderate Disagreement","Very Strong Agreement","Moderate Agreement","Moderate Agreement","Strong Agreement","Very Strong Agreement","Strong Agreement"
"113","A15XV3HYP99W8T:339ANSOTR68OYV977IZ6XUFNHLVIK8","2",7,5,2,"5","<p style=""font-size:100px""><b>V</b></p><p style=""position: absolute; top: 30px; right: 30px; text-align:right; font-size:50px"""">N = 2</p>","V",0,73,398,1,"agree",19,18,19,12,10,"30","Male","very like the study","Slight Agreement","Very Strong Agreement","Moderate Agreement","Very Strong Agreement","Moderate Agreement","Moderate Agreement","Very Strong Agreement","Strong Agreement","Very Strong Agreement","Very Strong Agreement","Strong Agreement","Moderate Disagreement","Very Strong Agreement","Moderate Agreement","Moderate Agreement","Strong Agreement","Very Strong Agreement","Strong Agreement"
"114","A15XV3HYP99W8T:339ANSOTR68OYV977IZ6XUFNHLVIK8","2",7,6,2,"5","<p style=""font-size:100px""><b>T</b></p><p style=""position: absolute; top: 30px; right: 30px; text-align:right; font-size:50px"""">N = 2</p>","T",0,NA,NA,0,"agree",19,18,19,12,10,"30","Male","very like the study","Slight Agreement","Very Strong Agreement","Moderate Agreement","Very Strong Agreement","Moderate Agreement","Moderate Agreement","Very Strong Agreement","Strong Agreement","Very Strong Agreement","Very Strong Agreement","Strong Agreement","Moderate Disagreement","Very Strong Agreement","Moderate Agreement","Moderate Agreement","Strong Agreement","Very Strong Agreement","Strong Agreement"
"115","A15XV3HYP99W8T:339ANSOTR68OYV977IZ6XUFNHLVIK8","2",7,7,2,"5","<p style=""font-size:100px""><b>V</b></p><p style=""position: absolute; top: 30px; right: 30px; text-align:right; font-size:50px"""">N = 2</p>","V",0,73,688,1,"agree",19,18,19,12,10,"30","Male","very like the study","Slight Agreement","Very Strong Agreement","Moderate Agreement","Very Strong Agreement","Moderate Agreement","Moderate Agreement","Very Strong Agreement","Strong Agreement","Very Strong Agreement","Very Strong Agreement","Strong Agreement","Moderate Disagreement","Very Strong Agreement","Moderate Agreement","Moderate Agreement","Strong Agreement","Very Strong Agreement","Strong Agreement"
"116","A15XV3HYP99W8T:339ANSOTR68OYV977IZ6XUFNHLVIK8","2",7,8,2,"5","<p style=""font-size:100px""><b>V</b></p><p style=""position: absolute; top: 30px; right: 30px; text-align:right; font-size:50px"""">N = 2</p>","V",0,73,493,1,"agree",19,18,19,12,10,"30","Male","very like the study","Slight Agreement","Very Strong Agreement","Moderate Agreement","Very Strong Agreement","Moderate Agreement","Moderate Agreement","Very Strong Agreement","Strong Agreement","Very Strong Agreement","Very Strong Agreement","Strong Agreement","Moderate Disagreement","Very Strong Agreement","Moderate Agreement","Moderate Agreement","Strong Agreement","Very Strong Agreement","Strong Agreement"
"117","A15XV3HYP99W8T:339ANSOTR68OYV977IZ6XUFNHLVIK8","2",7,9,2,"5","<p style=""font-size:100px""><b>P</b></p><p style=""position: absolute; top: 30px; right: 30px; text-align:right; font-size:50px"""">N = 2</p>","P",0,73,1006,1,"agree",19,18,19,12,10,"30","Male","very like the study","Slight Agreement","Very Strong Agreement","Moderate Agreement","Very Strong Agreement","Moderate Agreement","Moderate Agreement","Very Strong Agreement","Strong Agreement","Very Strong Agreement","Very Strong Agreement","Strong Agreement","Moderate Disagreement","Very Strong Agreement","Moderate Agreement","Moderate Agreement","Strong Agreement","Very Strong Agreement","Strong Agreement"
"118","A15XV3HYP99W8T:339ANSOTR68OYV977IZ6XUFNHLVIK8","2",7,10,2,"5","<p style=""font-size:100px""><b>D</b></p><p style=""position: absolute; top: 30px; right: 30px; text-align:right; font-size:50px"""">N = 2</p>","D",0,69,909,0,"agree",19,18,19,12,10,"30","Male","very like the study","Slight Agreement","Very Strong Agreement","Moderate Agreement","Very Strong Agreement","Moderate Agreement","Moderate Agreement","Very Strong Agreement","Strong Agreement","Very Strong Agreement","Very Strong Agreement","Strong Agreement","Moderate Disagreement","Very Strong Agreement","Moderate Agreement","Moderate Agreement","Strong Agreement","Very Strong Agreement","Strong Agreement"
"119","A15XV3HYP99W8T:339ANSOTR68OYV977IZ6XUFNHLVIK8","2",7,11,2,"5","<p style=""font-size:100px""><b>b</b></p><p style=""position: absolute; top: 30px; right: 30px; text-align:right; font-size:50px"""">N = 2</p>","b",0,73,190,1,"agree",19,18,19,12,10,"30","Male","very like the study","Slight Agreement","Very Strong Agreement","Moderate Agreement","Very Strong Agreement","Moderate Agreement","Moderate Agreement","Very Strong Agreement","Strong Agreement","Very Strong Agreement","Very Strong Agreement","Strong Agreement","Moderate Disagreement","Very Strong Agreement","Moderate Agreement","Moderate Agreement","Strong Agreement","Very Strong Agreement","Strong Agreement"
"120","A15XV3HYP99W8T:339ANSOTR68OYV977IZ6XUFNHLVIK8","2",7,12,2,"5","<p style=""font-size:100px""><b>D</b></p><p style=""position: absolute; top: 30px; right: 30px; text-align:right; font-size:50px"""">N = 2</p>","D",0,NA,NA,0,"agree",19,18,19,12,10,"30","Male","very like the study","Slight Agreement","Very Strong Agreement","Moderate Agreement","Very Strong Agreement","Moderate Agreement","Moderate Agreement","Very Strong Agreement","Strong Agreement","Very Strong Agreement","Very Strong Agreement","Strong Agreement","Moderate Disagreement","Very Strong Agreement","Moderate Agreement","Moderate Agreement","Strong Agreement","Very Strong Agreement","Strong Agreement"
"121","A15XV3HYP99W8T:339ANSOTR68OYV977IZ6XUFNHLVIK8","2",8,1,3,"5","<p style=""font-size:100px""><b>t</b></p><p style=""position: absolute; top: 30px; right: 30px; text-align:right; font-size:50px"""">N = 3</p>","t",0,73,909,1,"agree",18,18,16,8,18,"30","Male","very like the study","Slight Agreement","Very Strong Agreement","Moderate Agreement","Very Strong Agreement","Moderate Agreement","Moderate Agreement","Very Strong Agreement","Strong Agreement","Very Strong Agreement","Very Strong Agreement","Strong Agreement","Moderate Disagreement","Very Strong Agreement","Moderate Agreement","Moderate Agreement","Strong Agreement","Very Strong Agreement","Strong Agreement"
"122","A15XV3HYP99W8T:339ANSOTR68OYV977IZ6XUFNHLVIK8","2",8,2,3,"5","<p style=""font-size:100px""><b>P</b></p><p style=""position: absolute; top: 30px; right: 30px; text-align:right; font-size:50px"""">N = 3</p>","P",0,73,806,1,"agree",18,18,16,8,18,"30","Male","very like the study","Slight Agreement","Very Strong Agreement","Moderate Agreement","Very Strong Agreement","Moderate Agreement","Moderate Agreement","Very Strong Agreement","Strong Agreement","Very Strong Agreement","Very Strong Agreement","Strong Agreement","Moderate Disagreement","Very Strong Agreement","Moderate Agreement","Moderate Agreement","Strong Agreement","Very Strong Agreement","Strong Agreement"
"123","A15XV3HYP99W8T:339ANSOTR68OYV977IZ6XUFNHLVIK8","2",8,3,3,"5","<p style=""font-size:100px""><b>T</b></p><p style=""position: absolute; top: 30px; right: 30px; text-align:right; font-size:50px"""">N = 3</p>","T",0,73,826,1,"agree",18,18,16,8,18,"30","Male","very like the study","Slight Agreement","Very Strong Agreement","Moderate Agreement","Very Strong Agreement","Moderate Agreement","Moderate Agreement","Very Strong Agreement","Strong Agreement","Very Strong Agreement","Very Strong Agreement","Strong Agreement","Moderate Disagreement","Very Strong Agreement","Moderate Agreement","Moderate Agreement","Strong Agreement","Very Strong Agreement","Strong Agreement"
"124","A15XV3HYP99W8T:339ANSOTR68OYV977IZ6XUFNHLVIK8","2",8,4,3,"5","<p style=""font-size:100px""><b>t</b></p><p style=""position: absolute; top: 30px; right: 30px; text-align:right; font-size:50px"""">N = 3</p>","t",0,73,655,1,"agree",18,18,16,8,18,"30","Male","very like the study","Slight Agreement","Very Strong Agreement","Moderate Agreement","Very Strong Agreement","Moderate Agreement","Moderate Agreement","Very Strong Agreement","Strong Agreement","Very Strong Agreement","Very Strong Agreement","Strong Agreement","Moderate Disagreement","Very Strong Agreement","Moderate Agreement","Moderate Agreement","Strong Agreement","Very Strong Agreement","Strong Agreement"
"125","A15XV3HYP99W8T:339ANSOTR68OYV977IZ6XUFNHLVIK8","2",8,5,3,"5","<p style=""font-size:100px""><b>G</b></p><p style=""position: absolute; top: 30px; right: 30px; text-align:right; font-size:50px"""">N = 3</p>","G",0,73,725,1,"agree",18,18,16,8,18,"30","Male","very like the study","Slight Agreement","Very Strong Agreement","Moderate Agreement","Very Strong Agreement","Moderate Agreement","Moderate Agreement","Very Strong Agreement","Strong Agreement","Very Strong Agreement","Very Strong Agreement","Strong Agreement","Moderate Disagreement","Very Strong Agreement","Moderate Agreement","Moderate Agreement","Strong Agreement","Very Strong Agreement","Strong Agreement"
"126","A15XV3HYP99W8T:339ANSOTR68OYV977IZ6XUFNHLVIK8","2",8,6,3,"5","<p style=""font-size:100px""><b>T</b></p><p style=""position: absolute; top: 30px; right: 30px; text-align:right; font-size:50px"""">N = 3</p>","T",0,73,687,1,"agree",18,18,16,8,18,"30","Male","very like the study","Slight Agreement","Very Strong Agreement","Moderate Agreement","Very Strong Agreement","Moderate Agreement","Moderate Agreement","Very Strong Agreement","Strong Agreement","Very Strong Agreement","Very Strong Agreement","Strong Agreement","Moderate Disagreement","Very Strong Agreement","Moderate Agreement","Moderate Agreement","Strong Agreement","Very Strong Agreement","Strong Agreement"
"127","A15XV3HYP99W8T:339ANSOTR68OYV977IZ6XUFNHLVIK8","2",8,7,3,"5","<p style=""font-size:100px""><b>d</b></p><p style=""position: absolute; top: 30px; right: 30px; text-align:right; font-size:50px"""">N = 3</p>","d",0,73,558,1,"agree",18,18,16,8,18,"30","Male","very like the study","Slight Agreement","Very Strong Agreement","Moderate Agreement","Very Strong Agreement","Moderate Agreement","Moderate Agreement","Very Strong Agreement","Strong Agreement","Very Strong Agreement","Very Strong Agreement","Strong Agreement","Moderate Disagreement","Very Strong Agreement","Moderate Agreement","Moderate Agreement","Strong Agreement","Very Strong Agreement","Strong Agreement"
"128","A15XV3HYP99W8T:339ANSOTR68OYV977IZ6XUFNHLVIK8","2",8,8,3,"5","<p style=""font-size:100px""><b>D</b></p><p style=""position: absolute; top: 30px; right: 30px; text-align:right; font-size:50px"""">N = 3</p>","D",0,73,1021,1,"agree",18,18,16,8,18,"30","Male","very like the study","Slight Agreement","Very Strong Agreement","Moderate Agreement","Very Strong Agreement","Moderate Agreement","Moderate Agreement","Very Strong Agreement","Strong Agreement","Very Strong Agreement","Very Strong Agreement","Strong Agreement","Moderate Disagreement","Very Strong Agreement","Moderate Agreement","Moderate Agreement","Strong Agreement","Very Strong Agreement","Strong Agreement"
"129","A15XV3HYP99W8T:339ANSOTR68OYV977IZ6XUFNHLVIK8","2",8,9,3,"5","<p style=""font-size:100px""><b>d</b></p><p style=""position: absolute; top: 30px; right: 30px; text-align:right; font-size:50px"""">N = 3</p>","d",0,NA,NA,0,"agree",18,18,16,8,18,"30","Male","very like the study","Slight Agreement","Very Strong Agreement","Moderate Agreement","Very Strong Agreement","Moderate Agreement","Moderate Agreement","Very Strong Agreement","Strong Agreement","Very Strong Agreement","Very Strong Agreement","Strong Agreement","Moderate Disagreement","Very Strong Agreement","Moderate Agreement","Moderate Agreement","Strong Agreement","Very Strong Agreement","Strong Agreement"
"130","A15XV3HYP99W8T:339ANSOTR68OYV977IZ6XUFNHLVIK8","2",8,10,3,"5","<p style=""font-size:100px""><b>d</b></p><p style=""position: absolute; top: 30px; right: 30px; text-align:right; font-size:50px"""">N = 3</p>","d",0,NA,NA,0,"agree",18,18,16,8,18,"30","Male","very like the study","Slight Agreement","Very Strong Agreement","Moderate Agreement","Very Strong Agreement","Moderate Agreement","Moderate Agreement","Very Strong Agreement","Strong Agreement","Very Strong Agreement","Very Strong Agreement","Strong Agreement","Moderate Disagreement","Very Strong Agreement","Moderate Agreement","Moderate Agreement","Strong Agreement","Very Strong Agreement","Strong Agreement"
"131","A15XV3HYP99W8T:339ANSOTR68OYV977IZ6XUFNHLVIK8","2",8,11,3,"5","<p style=""font-size:100px""><b>b</b></p><p style=""position: absolute; top: 30px; right: 30px; text-align:right; font-size:50px"""">N = 3</p>","b",0,73,739,1,"agree",18,18,16,8,18,"30","Male","very like the study","Slight Agreement","Very Strong Agreement","Moderate Agreement","Very Strong Agreement","Moderate Agreement","Moderate Agreement","Very Strong Agreement","Strong Agreement","Very Strong Agreement","Very Strong Agreement","Strong Agreement","Moderate Disagreement","Very Strong Agreement","Moderate Agreement","Moderate Agreement","Strong Agreement","Very Strong Agreement","Strong Agreement"
"132","A15XV3HYP99W8T:339ANSOTR68OYV977IZ6XUFNHLVIK8","2",8,12,3,"5","<p style=""font-size:100px""><b>d</b></p><p style=""position: absolute; top: 30px; right: 30px; text-align:right; font-size:50px"""">N = 3</p>","d",0,NA,NA,0,"agree",18,18,16,8,18,"30","Male","very like the study","Slight Agreement","Very Strong Agreement","Moderate Agreement","Very Strong Agreement","Moderate Agreement","Moderate Agreement","Very Strong Agreement","Strong Agreement","Very Strong Agreement","Very Strong Agreement","Strong Agreement","Moderate Disagreement","Very Strong Agreement","Moderate Agreement","Moderate Agreement","Strong Agreement","Very Strong Agreement","Strong Agreement"
"133","A15XV3HYP99W8T:339ANSOTR68OYV977IZ6XUFNHLVIK8","2",9,1,2,"50","<p style=""font-size:100px""><b>B</b></p><p style=""position: absolute; top: 30px; right: 30px; text-align:right; font-size:50px"""">N = 2</p>","B",0,NA,NA,0,"agree",18,19,18,10,15,"30","Male","very like the study","Slight Agreement","Very Strong Agreement","Moderate Agreement","Very Strong Agreement","Moderate Agreement","Moderate Agreement","Very Strong Agreement","Strong Agreement","Very Strong Agreement","Very Strong Agreement","Strong Agreement","Moderate Disagreement","Very Strong Agreement","Moderate Agreement","Moderate Agreement","Strong Agreement","Very Strong Agreement","Strong Agreement"
"134","A15XV3HYP99W8T:339ANSOTR68OYV977IZ6XUFNHLVIK8","2",9,2,2,"50","<p style=""font-size:100px""><b>d</b></p><p style=""position: absolute; top: 30px; right: 30px; text-align:right; font-size:50px"""">N = 2</p>","d",0,NA,NA,0,"agree",18,19,18,10,15,"30","Male","very like the study","Slight Agreement","Very Strong Agreement","Moderate Agreement","Very Strong Agreement","Moderate Agreement","Moderate Agreement","Very Strong Agreement","Strong Agreement","Very Strong Agreement","Very Strong Agreement","Strong Agreement","Moderate Disagreement","Very Strong Agreement","Moderate Agreement","Moderate Agreement","Strong Agreement","Very Strong Agreement","Strong Agreement"
"135","A15XV3HYP99W8T:339ANSOTR68OYV977IZ6XUFNHLVIK8","2",9,3,2,"50","<p style=""font-size:100px""><b>B</b></p><p style=""position: absolute; top: 30px; right: 30px; text-align:right; font-size:50px"""">N = 2</p>","B",0,NA,NA,0,"agree",18,19,18,10,15,"30","Male","very like the study","Slight Agreement","Very Strong Agreement","Moderate Agreement","Very Strong Agreement","Moderate Agreement","Moderate Agreement","Very Strong Agreement","Strong Agreement","Very Strong Agreement","Very Strong Agreement","Strong Agreement","Moderate Disagreement","Very Strong Agreement","Moderate Agreement","Moderate Agreement","Strong Agreement","Very Strong Agreement","Strong Agreement"
"136","A15XV3HYP99W8T:339ANSOTR68OYV977IZ6XUFNHLVIK8","2",9,4,2,"50","<p style=""font-size:100px""><b>g</b></p><p style=""position: absolute; top: 30px; right: 30px; text-align:right; font-size:50px"""">N = 2</p>","g",0,73,301,1,"agree",18,19,18,10,15,"30","Male","very like the study","Slight Agreement","Very Strong Agreement","Moderate Agreement","Very Strong Agreement","Moderate Agreement","Moderate Agreement","Very Strong Agreement","Strong Agreement","Very Strong Agreement","Very Strong Agreement","Strong Agreement","Moderate Disagreement","Very Strong Agreement","Moderate Agreement","Moderate Agreement","Strong Agreement","Very Strong Agreement","Strong Agreement"
"137","A15XV3HYP99W8T:339ANSOTR68OYV977IZ6XUFNHLVIK8","2",9,5,2,"50","<p style=""font-size:100px""><b>t</b></p><p style=""position: absolute; top: 30px; right: 30px; text-align:right; font-size:50px"""">N = 2</p>","t",0,NA,NA,0,"agree",18,19,18,10,15,"30","Male","very like the study","Slight Agreement","Very Strong Agreement","Moderate Agreement","Very Strong Agreement","Moderate Agreement","Moderate Agreement","Very Strong Agreement","Strong Agreement","Very Strong Agreement","Very Strong Agreement","Strong Agreement","Moderate Disagreement","Very Strong Agreement","Moderate Agreement","Moderate Agreement","Strong Agreement","Very Strong Agreement","Strong Agreement"
"138","A15XV3HYP99W8T:339ANSOTR68OYV977IZ6XUFNHLVIK8","2",9,6,2,"50","<p style=""font-size:100px""><b>d</b></p><p style=""position: absolute; top: 30px; right: 30px; text-align:right; font-size:50px"""">N = 2</p>","d",0,73,1418,1,"agree",18,19,18,10,15,"30","Male","very like the study","Slight Agreement","Very Strong Agreement","Moderate Agreement","Very Strong Agreement","Moderate Agreement","Moderate Agreement","Very Strong Agreement","Strong Agreement","Very Strong Agreement","Very Strong Agreement","Strong Agreement","Moderate Disagreement","Very Strong Agreement","Moderate Agreement","Moderate Agreement","Strong Agreement","Very Strong Agreement","Strong Agreement"
"139","A15XV3HYP99W8T:339ANSOTR68OYV977IZ6XUFNHLVIK8","2",9,7,2,"50","<p style=""font-size:100px""><b>t</b></p><p style=""position: absolute; top: 30px; right: 30px; text-align:right; font-size:50px"""">N = 2</p>","t",0,73,672,1,"agree",18,19,18,10,15,"30","Male","very like the study","Slight Agreement","Very Strong Agreement","Moderate Agreement","Very Strong Agreement","Moderate Agreement","Moderate Agreement","Very Strong Agreement","Strong Agreement","Very Strong Agreement","Very Strong Agreement","Strong Agreement","Moderate Disagreement","Very Strong Agreement","Moderate Agreement","Moderate Agreement","Strong Agreement","Very Strong Agreement","Strong Agreement"
"140","A15XV3HYP99W8T:339ANSOTR68OYV977IZ6XUFNHLVIK8","2",9,8,2,"50","<p style=""font-size:100px""><b>V</b></p><p style=""position: absolute; top: 30px; right: 30px; text-align:right; font-size:50px"""">N = 2</p>","V",0,73,289,1,"agree",18,19,18,10,15,"30","Male","very like the study","Slight Agreement","Very Strong Agreement","Moderate Agreement","Very Strong Agreement","Moderate Agreement","Moderate Agreement","Very Strong Agreement","Strong Agreement","Very Strong Agreement","Very Strong Agreement","Strong Agreement","Moderate Disagreement","Very Strong Agreement","Moderate Agreement","Moderate Agreement","Strong Agreement","Very Strong Agreement","Strong Agreement"
"141","A15XV3HYP99W8T:339ANSOTR68OYV977IZ6XUFNHLVIK8","2",9,9,2,"50","<p style=""font-size:100px""><b>t</b></p><p style=""position: absolute; top: 30px; right: 30px; text-align:right; font-size:50px"""">N = 2</p>","t",0,73,223,1,"agree",18,19,18,10,15,"30","Male","very like the study","Slight Agreement","Very Strong Agreement","Moderate Agreement","Very Strong Agreement","Moderate Agreement","Moderate Agreement","Very Strong Agreement","Strong Agreement","Very Strong Agreement","Very Strong Agreement","Strong Agreement","Moderate Disagreement","Very Strong Agreement","Moderate Agreement","Moderate Agreement","Strong Agreement","Very Strong Agreement","Strong Agreement"
"142","A15XV3HYP99W8T:339ANSOTR68OYV977IZ6XUFNHLVIK8","2",9,10,2,"50","<p style=""font-size:100px""><b>V</b></p><p style=""position: absolute; top: 30px; right: 30px; text-align:right; font-size:50px"""">N = 2</p>","V",0,73,898,1,"agree",18,19,18,10,15,"30","Male","very like the study","Slight Agreement","Very Strong Agreement","Moderate Agreement","Very Strong Agreement","Moderate Agreement","Moderate Agreement","Very Strong Agreement","Strong Agreement","Very Strong Agreement","Very Strong Agreement","Strong Agreement","Moderate Disagreement","Very Strong Agreement","Moderate Agreement","Moderate Agreement","Strong Agreement","Very Strong Agreement","Strong Agreement"
"143","A15XV3HYP99W8T:339ANSOTR68OYV977IZ6XUFNHLVIK8","2",9,11,2,"50","<p style=""font-size:100px""><b>d</b></p><p style=""position: absolute; top: 30px; right: 30px; text-align:right; font-size:50px"""">N = 2</p>","d",0,73,230,1,"agree",18,19,18,10,15,"30","Male","very like the study","Slight Agreement","Very Strong Agreement","Moderate Agreement","Very Strong Agreement","Moderate Agreement","Moderate Agreement","Very Strong Agreement","Strong Agreement","Very Strong Agreement","Very Strong Agreement","Strong Agreement","Moderate Disagreement","Very Strong Agreement","Moderate Agreement","Moderate Agreement","Strong Agreement","Very Strong Agreement","Strong Agreement"
"144","A15XV3HYP99W8T:339ANSOTR68OYV977IZ6XUFNHLVIK8","2",9,12,2,"50","<p style=""font-size:100px""><b>p</b></p><p style=""position: absolute; top: 30px; right: 30px; text-align:right; font-size:50px"""">N = 2</p>","p",0,73,887,1,"agree",18,19,18,10,15,"30","Male","very like the study","Slight Agreement","Very Strong Agreement","Moderate Agreement","Very Strong Agreement","Moderate Agreement","Moderate Agreement","Very Strong Agreement","Strong Agreement","Very Strong Agreement","Very Strong Agreement","Strong Agreement","Moderate Disagreement","Very Strong Agreement","Moderate Agreement","Moderate Agreement","Strong Agreement","Very Strong Agreement","Strong Agreement"
"145","A15XV3HYP99W8T:339ANSOTR68OYV977IZ6XUFNHLVIK8","2",10,1,2,"50","<p style=""font-size:100px""><b>t</b></p><p style=""position: absolute; top: 30px; right: 30px; text-align:right; font-size:50px"""">N = 2</p>","t",0,NA,NA,0,"agree",18,18,18,10,18,"30","Male","very like the study","Slight Agreement","Very Strong Agreement","Moderate Agreement","Very Strong Agreement","Moderate Agreement","Moderate Agreement","Very Strong Agreement","Strong Agreement","Very Strong Agreement","Very Strong Agreement","Strong Agreement","Moderate Disagreement","Very Strong Agreement","Moderate Agreement","Moderate Agreement","Strong Agreement","Very Strong Agreement","Strong Agreement"
"146","A15XV3HYP99W8T:339ANSOTR68OYV977IZ6XUFNHLVIK8","2",10,2,2,"50","<p style=""font-size:100px""><b>d</b></p><p style=""position: absolute; top: 30px; right: 30px; text-align:right; font-size:50px"""">N = 2</p>","d",0,73,178,1,"agree",18,18,18,10,18,"30","Male","very like the study","Slight Agreement","Very Strong Agreement","Moderate Agreement","Very Strong Agreement","Moderate Agreement","Moderate Agreement","Very Strong Agreement","Strong Agreement","Very Strong Agreement","Very Strong Agreement","Strong Agreement","Moderate Disagreement","Very Strong Agreement","Moderate Agreement","Moderate Agreement","Strong Agreement","Very Strong Agreement","Strong Agreement"
"147","A15XV3HYP99W8T:339ANSOTR68OYV977IZ6XUFNHLVIK8","2",10,3,2,"50","<p style=""font-size:100px""><b>P</b></p><p style=""position: absolute; top: 30px; right: 30px; text-align:right; font-size:50px"""">N = 2</p>","P",0,73,243,1,"agree",18,18,18,10,18,"30","Male","very like the study","Slight Agreement","Very Strong Agreement","Moderate Agreement","Very Strong Agreement","Moderate Agreement","Moderate Agreement","Very Strong Agreement","Strong Agreement","Very Strong Agreement","Very Strong Agreement","Strong Agreement","Moderate Disagreement","Very Strong Agreement","Moderate Agreement","Moderate Agreement","Strong Agreement","Very Strong Agreement","Strong Agreement"
