"","subject","run","block","trial","N","reward","stimulus","cue","isTarget","key_press","rt","acc","debrief","performance","frustration","demand","temporal","effort","age","gender","comments","nfc1","nfc2","nfc3","nfc4","nfc5","nfc6","nfc7","nfc8","nfc9","nfc10","nfc11","nfc12","nfc13","nfc14","nfc15","nfc16","nfc17","nfc18"
"1","A303FIW2QB4TYO:3EFE17QCRDBMQJBV69QNO45IY6IHSS","practice",1,1,1,"NA","<p style=""font-size:100px""><b>D</b></p><p style=""position: absolute; top: 30px; right: 30px; text-align:right; font-size:50px"""">N = 1</p>","D",0,69,1982,0,"agree",15,19,16,19,17,"30","male","yes.  instructions are clear.","Moderate Agreement","Slight Agreement","Slight Agreement","Neither Agreement nor Disagreement","Very Strong Agreement","Moderate Agreement","Slight Agreement","Neither Agreement nor Disagreement","Moderate Agreement","Strong Agreement","Slight Agreement","Slight Disagreement","Moderate Agreement","Neither Agreement nor Disagreement","Moderate Agreement","Strong Agreement","Very Strong Agreement","Neither Agreement nor Disagreement"
"2","A303FIW2QB4TYO:3EFE17QCRDBMQJBV69QNO45IY6IHSS","practice",1,2,1,"NA","<p style=""font-size:100px""><b>g</b></p><p style=""position: absolute; top: 30px; right: 30px; text-align:right; font-size:50px"""">N = 1</p>","g",0,69,159,0,"agree",15,19,16,19,17,"30","male","yes.  instructions are clear.","Moderate Agreement","Slight Agreement","Slight Agreement","Neither Agreement nor Disagreement","Very Strong Agreement","Moderate Agreement","Slight Agreement","Neither Agreement nor Disagreement","Moderate Agreement","Strong Agreement","Slight Agreement","Slight Disagreement","Moderate Agreement","Neither Agreement nor Disagreement","Moderate Agreement","Strong Agreement","Very Strong Agreement","Neither Agreement nor Disagreement"
"3","A303FIW2QB4TYO:3EFE17QCRDBMQJBV69QNO45IY6IHSS","practice",1,3,1,"NA","<p style=""font-size:100px""><b>g</b></p><p style=""position: absolute; top: 30px; right: 30px; text-align:right; font-size:50px"""">N = 1</p>","g",1,69,45,1,"agree",15,19,16,19,17,"30","male","yes.  instructions are clear.","Moderate Agreement","Slight Agreement","Slight Agreement","Neither Agreement nor Disagreement","Very Strong Agreement","Moderate Agreement","Slight Agreement","Neither Agreement nor Disagreement","Moderate Agreement","Strong Agreement","Slight Agreement","Slight Disagreement","Moderate Agreement","Neither Agreement nor Disagreement","Moderate Agreement","Strong Agreement","Very Strong Agreement","Neither Agreement nor Disagreement"
"4","A303FIW2QB4TYO:3EFE17QCRDBMQJBV69QNO45IY6IHSS","practice",1,4,1,"NA","<p style=""font-size:100px""><b>v</b></p><p style=""position: absolute; top: 30px; right: 30px; text-align:right; font-size:50px"""">N = 1</p>","v",0,73,36,1,"agree",15,19,16,19,17,"30","male","yes.  instructions are clear.","Moderate Agreement","Slight Agreement","Slight Agreement","Neither Agreement nor Disagreement","Very Strong Agreement","Moderate Agreement","Slight Agreement","Neither Agreement nor Disagreement","Moderate Agreement","Strong Agreement","Slight Agreement","Slight Disagreement","Moderate Agreement","Neither Agreement nor Disagreement","Moderate Agreement","Strong Agreement","Very Strong Agreement","Neither Agreement nor Disagreement"
"5","A303FIW2QB4TYO:3EFE17QCRDBMQJBV69QNO45IY6IHSS","practice",1,5,1,"NA","<p style=""font-size:100px""><b>v</b></p><p style=""position: absolute; top: 30px; right: 30px; text-align:right; font-size:50px"""">N = 1</p>","v",1,69,41,1,"agree",15,19,16,19,17,"30","male","yes.  instructions are clear.","Moderate Agreement","Slight Agreement","Slight Agreement","Neither Agreement nor Disagreement","Very Strong Agreement","Moderate Agreement","Slight Agreement","Neither Agreement nor Disagreement","Moderate Agreement","Strong Agreement","Slight Agreement","Slight Disagreement","Moderate Agreement","Neither Agreement nor Disagreement","Moderate Agreement","Strong Agreement","Very Strong Agreement","Neither Agreement nor Disagreement"
"6","A303FIW2QB4TYO:3EFE17QCRDBMQJBV69QNO45IY6IHSS","practice",1,6,1,"NA","<p style=""font-size:100px""><b>P</b></p><p style=""position: absolute; top: 30px; right: 30px; text-align:right; font-size:50px"""">N = 1</p>","P",0,73,72,1,"agree",15,19,16,19,17,"30","male","yes.  instructions are clear.","Moderate Agreement","Slight Agreement","Slight Agreement","Neither Agreement nor Disagreement","Very Strong Agreement","Moderate Agreement","Slight Agreement","Neither Agreement nor Disagreement","Moderate Agreement","Strong Agreement","Slight Agreement","Slight Disagreement","Moderate Agreement","Neither Agreement nor Disagreement","Moderate Agreement","Strong Agreement","Very Strong Agreement","Neither Agreement nor Disagreement"
"7","A303FIW2QB4TYO:3EFE17QCRDBMQJBV69QNO45IY6IHSS","practice",1,7,1,"NA","<p style=""font-size:100px""><b>P</b></p><p style=""position: absolute; top: 30px; right: 30px; text-align:right; font-size:50px"""">N = 1</p>","P",1,69,23,1,"agree",15,19,16,19,17,"30","male","yes.  instructions are clear.","Moderate Agreement","Slight Agreement","Slight Agreement","Neither Agreement nor Disagreement","Very Strong Agreement","Moderate Agreement","Slight Agreement","Neither Agreement nor Disagreement","Moderate Agreement","Strong Agreement","Slight Agreement","Slight Disagreement","Moderate Agreement","Neither Agreement nor Disagreement","Moderate Agreement","Strong Agreement","Very Strong Agreement","Neither Agreement nor Disagreement"
"8","A303FIW2QB4TYO:3EFE17QCRDBMQJBV69QNO45IY6IHSS","practice",1,8,1,"NA","<p style=""font-size:100px""><b>G</b></p><p style=""position: absolute; top: 30px; right: 30px; text-align:right; font-size:50px"""">N = 1</p>","G",0,69,105,0,"agree",15,19,16,19,17,"30","male","yes.  instructions are clear.","Moderate Agreement","Slight Agreement","Slight Agreement","Neither Agreement nor Disagreement","Very Strong Agreement","Moderate Agreement","Slight Agreement","Neither Agreement nor Disagreement","Moderate Agreement","Strong Agreement","Slight Agreement","Slight Disagreement","Moderate Agreement","Neither Agreement nor Disagreement","Moderate Agreement","Strong Agreement","Very Strong Agreement","Neither Agreement nor Disagreement"
"9","A303FIW2QB4TYO:3EFE17QCRDBMQJBV69QNO45IY6IHSS","practice",1,9,1,"NA","<p style=""font-size:100px""><b>T</b></p><p style=""position: absolute; top: 30px; right: 30px; text-align:right; font-size:50px"""">N = 1</p>","T",0,69,81,0,"agree",15,19,16,19,17,"30","male","yes.  instructions are clear.","Moderate Agreement","Slight Agreement","Slight Agreement","Neither Agreement nor Disagreement","Very Strong Agreement","Moderate Agreement","Slight Agreement","Neither Agreement nor Disagreement","Moderate Agreement","Strong Agreement","Slight Agreement","Slight Disagreement","Moderate Agreement","Neither Agreement nor Disagreement","Moderate Agreement","Strong Agreement","Very Strong Agreement","Neither Agreement nor Disagreement"
"10","A303FIW2QB4TYO:3EFE17QCRDBMQJBV69QNO45IY6IHSS","practice",1,10,1,"NA","<p style=""font-size:100px""><b>T</b></p><p style=""position: absolute; top: 30px; right: 30px; text-align:right; font-size:50px"""">N = 1</p>","T",1,73,80,0,"agree",15,19,16,19,17,"30","male","yes.  instructions are clear.","Moderate Agreement","Slight Agreement","Slight Agreement","Neither Agreement nor Disagreement","Very Strong Agreement","Moderate Agreement","Slight Agreement","Neither Agreement nor Disagreement","Moderate Agreement","Strong Agreement","Slight Agreement","Slight Disagreement","Moderate Agreement","Neither Agreement nor Disagreement","Moderate Agreement","Strong Agreement","Very Strong Agreement","Neither Agreement nor Disagreement"
"11","A303FIW2QB4TYO:3EFE17QCRDBMQJBV69QNO45IY6IHSS","practice",1,11,1,"NA","<p style=""font-size:100px""><b>B</b></p><p style=""position: absolute; top: 30px; right: 30px; text-align:right; font-size:50px"""">N = 1</p>","B",0,73,75,1,"agree",15,19,16,19,17,"30","male","yes.  instructions are clear.","Moderate Agreement","Slight Agreement","Slight Agreement","Neither Agreement nor Disagreement","Very Strong Agreement","Moderate Agreement","Slight Agreement","Neither Agreement nor Disagreement","Moderate Agreement","Strong Agreement","Slight Agreement","Slight Disagreement","Moderate Agreement","Neither Agreement nor Disagreement","Moderate Agreement","Strong Agreement","Very Strong Agreement","Neither Agreement nor Disagreement"
"12","A303FIW2QB4TYO:3EFE17QCRDBMQJBV69QNO45IY6IHSS","practice",1,12,1,"NA","<p style=""font-size:100px""><b>T</b></p><p style=""position: absolute; top: 30px; right: 30px; text-align:right; font-size:50px"""">N = 1</p>","T",0,73,140,1,"agree",15,19,16,19,17,"30","male","yes.  instructions are clear.","Moderate Agreement","Slight Agreement","Slight Agreement","Neither Agreement nor Disagreement","Very Strong Agreement","Moderate Agreement","Slight Agreement","Neither Agreement nor Disagreement","Moderate Agreement","Strong Agreement","Slight Agreement","Slight Disagreement","Moderate Agreement","Neither Agreement nor Disagreement","Moderate Agreement","Strong Agreement","Very Strong Agreement","Neither Agreement nor Disagreement"
"13","A303FIW2QB4TYO:3EFE17QCRDBMQJBV69QNO45IY6IHSS","practice",2,1,2,"NA","<p style=""font-size:100px""><b>V</b></p><p style=""position: absolute; top: 30px; right: 30px; text-align:right; font-size:50px"""">N = 2</p>","V",0,69,98885,0,"agree",15,19,16,19,17,"30","male","yes.  instructions are clear.","Moderate Agreement","Slight Agreement","Slight Agreement","Neither Agreement nor Disagreement","Very Strong Agreement","Moderate Agreement","Slight Agreement","Neither Agreement nor Disagreement","Moderate Agreement","Strong Agreement","Slight Agreement","Slight Disagreement","Moderate Agreement","Neither Agreement nor Disagreement","Moderate Agreement","Strong Agreement","Very Strong Agreement","Neither Agreement nor Disagreement"
"14","A303FIW2QB4TYO:3EFE17QCRDBMQJBV69QNO45IY6IHSS","practice",2,2,2,"NA","<p style=""font-size:100px""><b>d</b></p><p style=""position: absolute; top: 30px; right: 30px; text-align:right; font-size:50px"""">N = 2</p>","d",0,73,10,1,"agree",15,19,16,19,17,"30","male","yes.  instructions are clear.","Moderate Agreement","Slight Agreement","Slight Agreement","Neither Agreement nor Disagreement","Very Strong Agreement","Moderate Agreement","Slight Agreement","Neither Agreement nor Disagreement","Moderate Agreement","Strong Agreement","Slight Agreement","Slight Disagreement","Moderate Agreement","Neither Agreement nor Disagreement","Moderate Agreement","Strong Agreement","Very Strong Agreement","Neither Agreement nor Disagreement"
"15","A303FIW2QB4TYO:3EFE17QCRDBMQJBV69QNO45IY6IHSS","practice",2,3,2,"NA","<p style=""font-size:100px""><b>T</b></p><p style=""position: absolute; top: 30px; right: 30px; text-align:right; font-size:50px"""">N = 2</p>","T",0,73,108,1,"agree",15,19,16,19,17,"30","male","yes.  instructions are clear.","Moderate Agreement","Slight Agreement","Slight Agreement","Neither Agreement nor Disagreement","Very Strong Agreement","Moderate Agreement","Slight Agreement","Neither Agreement nor Disagreement","Moderate Agreement","Strong Agreement","Slight Agreement","Slight Disagreement","Moderate Agreement","Neither Agreement nor Disagreement","Moderate Agreement","Strong Agreement","Very Strong Agreement","Neither Agreement nor Disagreement"
"16","A303FIW2QB4TYO:3EFE17QCRDBMQJBV69QNO45IY6IHSS","practice",2,4,2,"NA","<p style=""font-size:100px""><b>d</b></p><p style=""position: absolute; top: 30px; right: 30px; text-align:right; font-size:50px"""">N = 2</p>","d",1,69,51,1,"agree",15,19,16,19,17,"30","male","yes.  instructions are clear.","Moderate Agreement","Slight Agreement","Slight Agreement","Neither Agreement nor Disagreement","Very Strong Agreement","Moderate Agreement","Slight Agreement","Neither Agreement nor Disagreement","Moderate Agreement","Strong Agreement","Slight Agreement","Slight Disagreement","Moderate Agreement","Neither Agreement nor Disagreement","Moderate Agreement","Strong Agreement","Very Strong Agreement","Neither Agreement nor Disagreement"
"17","A303FIW2QB4TYO:3EFE17QCRDBMQJBV69QNO45IY6IHSS","practice",2,5,2,"NA","<p style=""font-size:100px""><b>T</b></p><p style=""position: absolute; top: 30px; right: 30px; text-align:right; font-size:50px"""">N = 2</p>","T",1,73,46,0,"agree",15,19,16,19,17,"30","male","yes.  instructions are clear.","Moderate Agreement","Slight Agreement","Slight Agreement","Neither Agreement nor Disagreement","Very Strong Agreement","Moderate Agreement","Slight Agreement","Neither Agreement nor Disagreement","Moderate Agreement","Strong Agreement","Slight Agreement","Slight Disagreement","Moderate Agreement","Neither Agreement nor Disagreement","Moderate Agreement","Strong Agreement","Very Strong Agreement","Neither Agreement nor Disagreement"
"18","A303FIW2QB4TYO:3EFE17QCRDBMQJBV69QNO45IY6IHSS","practice",2,6,2,"NA","<p style=""font-size:100px""><b>V</b></p><p style=""position: absolute; top: 30px; right: 30px; text-align:right; font-size:50px"""">N = 2</p>","V",0,73,88,1,"agree",15,19,16,19,17,"30","male","yes.  instructions are clear.","Moderate Agreement","Slight Agreement","Slight Agreement","Neither Agreement nor Disagreement","Very Strong Agreement","Moderate Agreement","Slight Agreement","Neither Agreement nor Disagreement","Moderate Agreement","Strong Agreement","Slight Agreement","Slight Disagreement","Moderate Agreement","Neither Agreement nor Disagreement","Moderate Agreement","Strong Agreement","Very Strong Agreement","Neither Agreement nor Disagreement"
"19","A303FIW2QB4TYO:3EFE17QCRDBMQJBV69QNO45IY6IHSS","practice",2,7,2,"NA","<p style=""font-size:100px""><b>v</b></p><p style=""position: absolute; top: 30px; right: 30px; text-align:right; font-size:50px"""">N = 2</p>","v",0,69,9,0,"agree",15,19,16,19,17,"30","male","yes.  instructions are clear.","Moderate Agreement","Slight Agreement","Slight Agreement","Neither Agreement nor Disagreement","Very Strong Agreement","Moderate Agreement","Slight Agreement","Neither Agreement nor Disagreement","Moderate Agreement","Strong Agreement","Slight Agreement","Slight Disagreement","Moderate Agreement","Neither Agreement nor Disagreement","Moderate Agreement","Strong Agreement","Very Strong Agreement","Neither Agreement nor Disagreement"
"20","A303FIW2QB4TYO:3EFE17QCRDBMQJBV69QNO45IY6IHSS","practice",2,8,2,"NA","<p style=""font-size:100px""><b>V</b></p><p style=""position: absolute; top: 30px; right: 30px; text-align:right; font-size:50px"""">N = 2</p>","V",1,69,111,1,"agree",15,19,16,19,17,"30","male","yes.  instructions are clear.","Moderate Agreement","Slight Agreement","Slight Agreement","Neither Agreement nor Disagreement","Very Strong Agreement","Moderate Agreement","Slight Agreement","Neither Agreement nor Disagreement","Moderate Agreement","Strong Agreement","Slight Agreement","Slight Disagreement","Moderate Agreement","Neither Agreement nor Disagreement","Moderate Agreement","Strong Agreement","Very Strong Agreement","Neither Agreement nor Disagreement"
"21","A303FIW2QB4TYO:3EFE17QCRDBMQJBV69QNO45IY6IHSS","practice",2,9,2,"NA","<p style=""font-size:100px""><b>T</b></p><p style=""position: absolute; top: 30px; right: 30px; text-align:right; font-size:50px"""">N = 2</p>","T",0,69,115,0,"agree",15,19,16,19,17,"30","male","yes.  instructions are clear.","Moderate Agreement","Slight Agreement","Slight Agreement","Neither Agreement nor Disagreement","Very Strong Agreement","Moderate Agreement","Slight Agreement","Neither Agreement nor Disagreement","Moderate Agreement","Strong Agreement","Slight Agreement","Slight Disagreement","Moderate Agreement","Neither Agreement nor Disagreement","Moderate Agreement","Strong Agreement","Very Strong Agreement","Neither Agreement nor Disagreement"
"22","A303FIW2QB4TYO:3EFE17QCRDBMQJBV69QNO45IY6IHSS","practice",2,10,2,"NA","<p style=""font-size:100px""><b>G</b></p><p style=""position: absolute; top: 30px; right: 30px; text-align:right; font-size:50px"""">N = 2</p>","G",0,69,126,0,"agree",15,19,16,19,17,"30","male","yes.  instructions are clear.","Moderate Agreement","Slight Agreement","Slight Agreement","Neither Agreement nor Disagreement","Very Strong Agreement","Moderate Agreement","Slight Agreement","Neither Agreement nor Disagreement","Moderate Agreement","Strong Agreement","Slight Agreement","Slight Disagreement","Moderate Agreement","Neither Agreement nor Disagreement","Moderate Agreement","Strong Agreement","Very Strong Agreement","Neither Agreement nor Disagreement"
"23","A303FIW2QB4TYO:3EFE17QCRDBMQJBV69QNO45IY6IHSS","practice",2,11,2,"NA","<p style=""font-size:100px""><b>P</b></p><p style=""position: absolute; top: 30px; right: 30px; text-align:right; font-size:50px"""">N = 2</p>","P",0,73,101,1,"agree",15,19,16,19,17,"30","male","yes.  instructions are clear.","Moderate Agreement","Slight Agreement","Slight Agreement","Neither Agreement nor Disagreement","Very Strong Agreement","Moderate Agreement","Slight Agreement","Neither Agreement nor Disagreement","Moderate Agreement","Strong Agreement","Slight Agreement","Slight Disagreement","Moderate Agreement","Neither Agreement nor Disagreement","Moderate Agreement","Strong Agreement","Very Strong Agreement","Neither Agreement nor Disagreement"
"24","A303FIW2QB4TYO:3EFE17QCRDBMQJBV69QNO45IY6IHSS","practice",2,12,2,"NA","<p style=""font-size:100px""><b>G</b></p><p style=""position: absolute; top: 30px; right: 30px; text-align:right; font-size:50px"""">N = 2</p>","G",1,73,185,0,"agree",15,19,16,19,17,"30","male","yes.  instructions are clear.","Moderate Agreement","Slight Agreement","Slight Agreement","Neither Agreement nor Disagreement","Very Strong Agreement","Moderate Agreement","Slight Agreement","Neither Agreement nor Disagreement","Moderate Agreement","Strong Agreement","Slight Agreement","Slight Disagreement","Moderate Agreement","Neither Agreement nor Disagreement","Moderate Agreement","Strong Agreement","Very Strong Agreement","Neither Agreement nor Disagreement"
"25","A303FIW2QB4TYO:3EFE17QCRDBMQJBV69QNO45IY6IHSS","practice",3,1,3,"NA","<p style=""font-size:100px""><b>d</b></p><p style=""position: absolute; top: 30px; right: 30px; text-align:right; font-size:50px"""">N = 3</p>","d",0,73,1521,1,"agree",15,19,16,19,17,"30","male","yes.  instructions are clear.","Moderate Agreement","Slight Agreement","Slight Agreement","Neither Agreement nor Disagreement","Very Strong Agreement","Moderate Agreement","Slight Agreement","Neither Agreement nor Disagreement","Moderate Agreement","Strong Agreement","Slight Agreement","Slight Disagreement","Moderate Agreement","Neither Agreement nor Disagreement","Moderate Agreement","Strong Agreement","Very Strong Agreement","Neither Agreement nor Disagreement"
"26","A303FIW2QB4TYO:3EFE17QCRDBMQJBV69QNO45IY6IHSS","practice",3,2,3,"NA","<p style=""font-size:100px""><b>G</b></p><p style=""position: absolute; top: 30px; right: 30px; text-align:right; font-size:50px"""">N = 3</p>","G",0,73,72,1,"agree",15,19,16,19,17,"30","male","yes.  instructions are clear.","Moderate Agreement","Slight Agreement","Slight Agreement","Neither Agreement nor Disagreement","Very Strong Agreement","Moderate Agreement","Slight Agreement","Neither Agreement nor Disagreement","Moderate Agreement","Strong Agreement","Slight Agreement","Slight Disagreement","Moderate Agreement","Neither Agreement nor Disagreement","Moderate Agreement","Strong Agreement","Very Strong Agreement","Neither Agreement nor Disagreement"
"27","A303FIW2QB4TYO:3EFE17QCRDBMQJBV69QNO45IY6IHSS","practice",3,3,3,"NA","<p style=""font-size:100px""><b>b</b></p><p style=""position: absolute; top: 30px; right: 30px; text-align:right; font-size:50px"""">N = 3</p>","b",0,69,177,0,"agree",15,19,16,19,17,"30","male","yes.  instructions are clear.","Moderate Agreement","Slight Agreement","Slight Agreement","Neither Agreement nor Disagreement","Very Strong Agreement","Moderate Agreement","Slight Agreement","Neither Agreement nor Disagreement","Moderate Agreement","Strong Agreement","Slight Agreement","Slight Disagreement","Moderate Agreement","Neither Agreement nor Disagreement","Moderate Agreement","Strong Agreement","Very Strong Agreement","Neither Agreement nor Disagreement"
"28","A303FIW2QB4TYO:3EFE17QCRDBMQJBV69QNO45IY6IHSS","practice",3,4,3,"NA","<p style=""font-size:100px""><b>v</b></p><p style=""position: absolute; top: 30px; right: 30px; text-align:right; font-size:50px"""">N = 3</p>","v",0,73,50,1,"agree",15,19,16,19,17,"30","male","yes.  instructions are clear.","Moderate Agreement","Slight Agreement","Slight Agreement","Neither Agreement nor Disagreement","Very Strong Agreement","Moderate Agreement","Slight Agreement","Neither Agreement nor Disagreement","Moderate Agreement","Strong Agreement","Slight Agreement","Slight Disagreement","Moderate Agreement","Neither Agreement nor Disagreement","Moderate Agreement","Strong Agreement","Very Strong Agreement","Neither Agreement nor Disagreement"
"29","A303FIW2QB4TYO:3EFE17QCRDBMQJBV69QNO45IY6IHSS","practice",3,5,3,"NA","<p style=""font-size:100px""><b>G</b></p><p style=""position: absolute; top: 30px; right: 30px; text-align:right; font-size:50px"""">N = 3</p>","G",1,69,157,1,"agree",15,19,16,19,17,"30","male","yes.  instructions are clear.","Moderate Agreement","Slight Agreement","Slight Agreement","Neither Agreement nor Disagreement","Very Strong Agreement","Moderate Agreement","Slight Agreement","Neither Agreement nor Disagreement","Moderate Agreement","Strong Agreement","Slight Agreement","Slight Disagreement","Moderate Agreement","Neither Agreement nor Disagreement","Moderate Agreement","Strong Agreement","Very Strong Agreement","Neither Agreement nor Disagreement"
"30","A303FIW2QB4TYO:3EFE17QCRDBMQJBV69QNO45IY6IHSS","practice",3,6,3,"NA","<p style=""font-size:100px""><b>t</b></p><p style=""position: absolute; top: 30px; right: 30px; text-align:right; font-size:50px"""">N = 3</p>","t",0,69,77,0,"agree",15,19,16,19,17,"30","male","yes.  instructions are clear.","Moderate Agreement","Slight Agreement","Slight Agreement","Neither Agreement nor Disagreement","Very Strong Agreement","Moderate Agreement","Slight Agreement","Neither Agreement nor Disagreement","Moderate Agreement","Strong Agreement","Slight Agreement","Slight Disagreement","Moderate Agreement","Neither Agreement nor Disagreement","Moderate Agreement","Strong Agreement","Very Strong Agreement","Neither Agreement nor Disagreement"
"31","A303FIW2QB4TYO:3EFE17QCRDBMQJBV69QNO45IY6IHSS","practice",3,7,3,"NA","<p style=""font-size:100px""><b>p</b></p><p style=""position: absolute; top: 30px; right: 30px; text-align:right; font-size:50px"""">N = 3</p>","p",0,73,92,1,"agree",15,19,16,19,17,"30","male","yes.  instructions are clear.","Moderate Agreement","Slight Agreement","Slight Agreement","Neither Agreement nor Disagreement","Very Strong Agreement","Moderate Agreement","Slight Agreement","Neither Agreement nor Disagreement","Moderate Agreement","Strong Agreement","Slight Agreement","Slight Disagreement","Moderate Agreement","Neither Agreement nor Disagreement","Moderate Agreement","Strong Agreement","Very Strong Agreement","Neither Agreement nor Disagreement"
"32","A303FIW2QB4TYO:3EFE17QCRDBMQJBV69QNO45IY6IHSS","practice",3,8,3,"NA","<p style=""font-size:100px""><b>G</b></p><p style=""position: absolute; top: 30px; right: 30px; text-align:right; font-size:50px"""">N = 3</p>","G",1,73,41,0,"agree",15,19,16,19,17,"30","male","yes.  instructions are clear.","Moderate Agreement","Slight Agreement","Slight Agreement","Neither Agreement nor Disagreement","Very Strong Agreement","Moderate Agreement","Slight Agreement","Neither Agreement nor Disagreement","Moderate Agreement","Strong Agreement","Slight Agreement","Slight Disagreement","Moderate Agreement","Neither Agreement nor Disagreement","Moderate Agreement","Strong Agreement","Very Strong Agreement","Neither Agreement nor Disagreement"
"33","A303FIW2QB4TYO:3EFE17QCRDBMQJBV69QNO45IY6IHSS","practice",3,9,3,"NA","<p style=""font-size:100px""><b>t</b></p><p style=""position: absolute; top: 30px; right: 30px; text-align:right; font-size:50px"""">N = 3</p>","t",1,73,1,0,"agree",15,19,16,19,17,"30","male","yes.  instructions are clear.","Moderate Agreement","Slight Agreement","Slight Agreement","Neither Agreement nor Disagreement","Very Strong Agreement","Moderate Agreement","Slight Agreement","Neither Agreement nor Disagreement","Moderate Agreement","Strong Agreement","Slight Agreement","Slight Disagreement","Moderate Agreement","Neither Agreement nor Disagreement","Moderate Agreement","Strong Agreement","Very Strong Agreement","Neither Agreement nor Disagreement"
"34","A303FIW2QB4TYO:3EFE17QCRDBMQJBV69QNO45IY6IHSS","practice",3,10,3,"NA","<p style=""font-size:100px""><b>v</b></p><p style=""position: absolute; top: 30px; right: 30px; text-align:right; font-size:50px"""">N = 3</p>","v",0,69,171,0,"agree",15,19,16,19,17,"30","male","yes.  instructions are clear.","Moderate Agreement","Slight Agreement","Slight Agreement","Neither Agreement nor Disagreement","Very Strong Agreement","Moderate Agreement","Slight Agreement","Neither Agreement nor Disagreement","Moderate Agreement","Strong Agreement","Slight Agreement","Slight Disagreement","Moderate Agreement","Neither Agreement nor Disagreement","Moderate Agreement","Strong Agreement","Very Strong Agreement","Neither Agreement nor Disagreement"
"35","A303FIW2QB4TYO:3EFE17QCRDBMQJBV69QNO45IY6IHSS","practice",3,11,3,"NA","<p style=""font-size:100px""><b>G</b></p><p style=""position: absolute; top: 30px; right: 30px; text-align:right; font-size:50px"""">N = 3</p>","G",1,73,85,0,"agree",15,19,16,19,17,"30","male","yes.  instructions are clear.","Moderate Agreement","Slight Agreement","Slight Agreement","Neither Agreement nor Disagreement","Very Strong Agreement","Moderate Agreement","Slight Agreement","Neither Agreement nor Disagreement","Moderate Agreement","Strong Agreement","Slight Agreement","Slight Disagreement","Moderate Agreement","Neither Agreement nor Disagreement","Moderate Agreement","Strong Agreement","Very Strong Agreement","Neither Agreement nor Disagreement"
"36","A303FIW2QB4TYO:3EFE17QCRDBMQJBV69QNO45IY6IHSS","practice",3,12,3,"NA","<p style=""font-size:100px""><b>P</b></p><p style=""position: absolute; top: 30px; right: 30px; text-align:right; font-size:50px"""">N = 3</p>","P",0,73,29,1,"agree",15,19,16,19,17,"30","male","yes.  instructions are clear.","Moderate Agreement","Slight Agreement","Slight Agreement","Neither Agreement nor Disagreement","Very Strong Agreement","Moderate Agreement","Slight Agreement","Neither Agreement nor Disagreement","Moderate Agreement","Strong Agreement","Slight Agreement","Slight Disagreement","Moderate Agreement","Neither Agreement nor Disagreement","Moderate Agreement","Strong Agreement","Very Strong Agreement","Neither Agreement nor Disagreement"
"37","A303FIW2QB4TYO:3EFE17QCRDBMQJBV69QNO45IY6IHSS","1",1,1,2,"5","<p style=""font-size:100px""><b>V</b></p><p style=""position: absolute; top: 30px; right: 30px; text-align:right; font-size:50px"""">N = 2</p>","V",0,69,481,0,"agree",15,19,16,19,17,"30","male","yes.  instructions are clear.","Moderate Agreement","Slight Agreement","Slight Agreement","Neither Agreement nor Disagreement","Very Strong Agreement","Moderate Agreement","Slight Agreement","Neither Agreement nor Disagreement","Moderate Agreement","Strong Agreement","Slight Agreement","Slight Disagreement","Moderate Agreement","Neither Agreement nor Disagreement","Moderate Agreement","Strong Agreement","Very Strong Agreement","Neither Agreement nor Disagreement"
"38","A303FIW2QB4TYO:3EFE17QCRDBMQJBV69QNO45IY6IHSS","1",1,2,2,"5","<p style=""font-size:100px""><b>D</b></p><p style=""position: absolute; top: 30px; right: 30px; text-align:right; font-size:50px"""">N = 2</p>","D",0,69,176,0,"agree",15,19,16,19,17,"30","male","yes.  instructions are clear.","Moderate Agreement","Slight Agreement","Slight Agreement","Neither Agreement nor Disagreement","Very Strong Agreement","Moderate Agreement","Slight Agreement","Neither Agreement nor Disagreement","Moderate Agreement","Strong Agreement","Slight Agreement","Slight Disagreement","Moderate Agreement","Neither Agreement nor Disagreement","Moderate Agreement","Strong Agreement","Very Strong Agreement","Neither Agreement nor Disagreement"
"39","A303FIW2QB4TYO:3EFE17QCRDBMQJBV69QNO45IY6IHSS","1",1,3,2,"5","<p style=""font-size:100px""><b>V</b></p><p style=""position: absolute; top: 30px; right: 30px; text-align:right; font-size:50px"""">N = 2</p>","V",0,73,157,1,"agree",15,19,16,19,17,"30","male","yes.  instructions are clear.","Moderate Agreement","Slight Agreement","Slight Agreement","Neither Agreement nor Disagreement","Very Strong Agreement","Moderate Agreement","Slight Agreement","Neither Agreement nor Disagreement","Moderate Agreement","Strong Agreement","Slight Agreement","Slight Disagreement","Moderate Agreement","Neither Agreement nor Disagreement","Moderate Agreement","Strong Agreement","Very Strong Agreement","Neither Agreement nor Disagreement"
"40","A303FIW2QB4TYO:3EFE17QCRDBMQJBV69QNO45IY6IHSS","1",1,4,2,"5","<p style=""font-size:100px""><b>v</b></p><p style=""position: absolute; top: 30px; right: 30px; text-align:right; font-size:50px"""">N = 2</p>","v",0,73,86,1,"agree",15,19,16,19,17,"30","male","yes.  instructions are clear.","Moderate Agreement","Slight Agreement","Slight Agreement","Neither Agreement nor Disagreement","Very Strong Agreement","Moderate Agreement","Slight Agreement","Neither Agreement nor Disagreement","Moderate Agreement","Strong Agreement","Slight Agreement","Slight Disagreement","Moderate Agreement","Neither Agreement nor Disagreement","Moderate Agreement","Strong Agreement","Very Strong Agreement","Neither Agreement nor Disagreement"
"41","A303FIW2QB4TYO:3EFE17QCRDBMQJBV69QNO45IY6IHSS","1",1,5,2,"5","<p style=""font-size:100px""><b>d</b></p><p style=""position: absolute; top: 30px; right: 30px; text-align:right; font-size:50px"""">N = 2</p>","d",0,73,57,1,"agree",15,19,16,19,17,"30","male","yes.  instructions are clear.","Moderate Agreement","Slight Agreement","Slight Agreement","Neither Agreement nor Disagreement","Very Strong Agreement","Moderate Agreement","Slight Agreement","Neither Agreement nor Disagreement","Moderate Agreement","Strong Agreement","Slight Agreement","Slight Disagreement","Moderate Agreement","Neither Agreement nor Disagreement","Moderate Agreement","Strong Agreement","Very Strong Agreement","Neither Agreement nor Disagreement"
"42","A303FIW2QB4TYO:3EFE17QCRDBMQJBV69QNO45IY6IHSS","1",1,6,2,"5","<p style=""font-size:100px""><b>d</b></p><p style=""position: absolute; top: 30px; right: 30px; text-align:right; font-size:50px"""">N = 2</p>","d",0,69,173,0,"agree",15,19,16,19,17,"30","male","yes.  instructions are clear.","Moderate Agreement","Slight Agreement","Slight Agreement","Neither Agreement nor Disagreement","Very Strong Agreement","Moderate Agreement","Slight Agreement","Neither Agreement nor Disagreement","Moderate Agreement","Strong Agreement","Slight Agreement","Slight Disagreement","Moderate Agreement","Neither Agreement nor Disagreement","Moderate Agreement","Strong Agreement","Very Strong Agreement","Neither Agreement nor Disagreement"
"43","A303FIW2QB4TYO:3EFE17QCRDBMQJBV69QNO45IY6IHSS","1",1,7,2,"5","<p style=""font-size:100px""><b>b</b></p><p style=""position: absolute; top: 30px; right: 30px; text-align:right; font-size:50px"""">N = 2</p>","b",0,73,65,1,"agree",15,19,16,19,17,"30","male","yes.  instructions are clear.","Moderate Agreement","Slight Agreement","Slight Agreement","Neither Agreement nor Disagreement","Very Strong Agreement","Moderate Agreement","Slight Agreement","Neither Agreement nor Disagreement","Moderate Agreement","Strong Agreement","Slight Agreement","Slight Disagreement","Moderate Agreement","Neither Agreement nor Disagreement","Moderate Agreement","Strong Agreement","Very Strong Agreement","Neither Agreement nor Disagreement"
"44","A303FIW2QB4TYO:3EFE17QCRDBMQJBV69QNO45IY6IHSS","1",1,8,2,"5","<p style=""font-size:100px""><b>d</b></p><p style=""position: absolute; top: 30px; right: 30px; text-align:right; font-size:50px"""">N = 2</p>","d",0,69,196,0,"agree",15,19,16,19,17,"30","male","yes.  instructions are clear.","Moderate Agreement","Slight Agreement","Slight Agreement","Neither Agreement nor Disagreement","Very Strong Agreement","Moderate Agreement","Slight Agreement","Neither Agreement nor Disagreement","Moderate Agreement","Strong Agreement","Slight Agreement","Slight Disagreement","Moderate Agreement","Neither Agreement nor Disagreement","Moderate Agreement","Strong Agreement","Very Strong Agreement","Neither Agreement nor Disagreement"
"45","A303FIW2QB4TYO:3EFE17QCRDBMQJBV69QNO45IY6IHSS","1",1,9,2,"5","<p style=""font-size:100px""><b>v</b></p><p style=""position: absolute; top: 30px; right: 30px; text-align:right; font-size:50px"""">N = 2</p>","v",0,73,47,1,"agree",15,19,16,19,17,"30","male","yes.  instructions are clear.","Moderate Agreement","Slight Agreement","Slight Agreement","Neither Agreement nor Disagreement","Very Strong Agreement","Moderate Agreement","Slight Agreement","Neither Agreement nor Disagreement","Moderate Agreement","Strong Agreement","Slight Agreement","Slight Disagreement","Moderate Agreement","Neither Agreement nor Disagreement","Moderate Agreement","Strong Agreement","Very Strong Agreement","Neither Agreement nor Disagreement"
"46","A303FIW2QB4TYO:3EFE17QCRDBMQJBV69QNO45IY6IHSS","1",1,10,2,"5","<p style=""font-size:100px""><b>G</b></p><p style=""position: absolute; top: 30px; right: 30px; text-align:right; font-size:50px"""">N = 2</p>","G",0,73,196,1,"agree",15,19,16,19,17,"30","male","yes.  instructions are clear.","Moderate Agreement","Slight Agreement","Slight Agreement","Neither Agreement nor Disagreement","Very Strong Agreement","Moderate Agreement","Slight Agreement","Neither Agreement nor Disagreement","Moderate Agreement","Strong Agreement","Slight Agreement","Slight Disagreement","Moderate Agreement","Neither Agreement nor Disagreement","Moderate Agreement","Strong Agreement","Very Strong Agreement","Neither Agreement nor Disagreement"
"47","A303FIW2QB4TYO:3EFE17QCRDBMQJBV69QNO45IY6IHSS","1",1,11,2,"5","<p style=""font-size:100px""><b>v</b></p><p style=""position: absolute; top: 30px; right: 30px; text-align:right; font-size:50px"""">N = 2</p>","v",0,69,128,0,"agree",15,19,16,19,17,"30","male","yes.  instructions are clear.","Moderate Agreement","Slight Agreement","Slight Agreement","Neither Agreement nor Disagreement","Very Strong Agreement","Moderate Agreement","Slight Agreement","Neither Agreement nor Disagreement","Moderate Agreement","Strong Agreement","Slight Agreement","Slight Disagreement","Moderate Agreement","Neither Agreement nor Disagreement","Moderate Agreement","Strong Agreement","Very Strong Agreement","Neither Agreement nor Disagreement"
"48","A303FIW2QB4TYO:3EFE17QCRDBMQJBV69QNO45IY6IHSS","1",1,12,2,"5","<p style=""font-size:100px""><b>G</b></p><p style=""position: absolute; top: 30px; right: 30px; text-align:right; font-size:50px"""">N = 2</p>","G",0,73,60,1,"agree",15,19,16,19,17,"30","male","yes.  instructions are clear.","Moderate Agreement","Slight Agreement","Slight Agreement","Neither Agreement nor Disagreement","Very Strong Agreement","Moderate Agreement","Slight Agreement","Neither Agreement nor Disagreement","Moderate Agreement","Strong Agreement","Slight Agreement","Slight Disagreement","Moderate Agreement","Neither Agreement nor Disagreement","Moderate Agreement","Strong Agreement","Very Strong Agreement","Neither Agreement nor Disagreement"
"49","A303FIW2QB4TYO:3EFE17QCRDBMQJBV69QNO45IY6IHSS","1",2,1,3,"5","<p style=""font-size:100px""><b>T</b></p><p style=""position: absolute; top: 30px; right: 30px; text-align:right; font-size:50px"""">N = 3</p>","T",0,73,110,1,"agree",20,18,19,15,18,"30","male","yes.  instructions are clear.","Moderate Agreement","Slight Agreement","Slight Agreement","Neither Agreement nor Disagreement","Very Strong Agreement","Moderate Agreement","Slight Agreement","Neither Agreement nor Disagreement","Moderate Agreement","Strong Agreement","Slight Agreement","Slight Disagreement","Moderate Agreement","Neither Agreement nor Disagreement","Moderate Agreement","Strong Agreement","Very Strong Agreement","Neither Agreement nor Disagreement"
"50","A303FIW2QB4TYO:3EFE17QCRDBMQJBV69QNO45IY6IHSS","1",2,2,3,"5","<p style=""font-size:100px""><b>V</b></p><p style=""position: absolute; top: 30px; right: 30px; text-align:right; font-size:50px"""">N = 3</p>","V",0,73,117,1,"agree",20,18,19,15,18,"30","male","yes.  instructions are clear.","Moderate Agreement","Slight Agreement","Slight Agreement","Neither Agreement nor Disagreement","Very Strong Agreement","Moderate Agreement","Slight Agreement","Neither Agreement nor Disagreement","Moderate Agreement","Strong Agreement","Slight Agreement","Slight Disagreement","Moderate Agreement","Neither Agreement nor Disagreement","Moderate Agreement","Strong Agreement","Very Strong Agreement","Neither Agreement nor Disagreement"
"51","A303FIW2QB4TYO:3EFE17QCRDBMQJBV69QNO45IY6IHSS","1",2,3,3,"5","<p style=""font-size:100px""><b>D</b></p><p style=""position: absolute; top: 30px; right: 30px; text-align:right; font-size:50px"""">N = 3</p>","D",0,73,83,1,"agree",20,18,19,15,18,"30","male","yes.  instructions are clear.","Moderate Agreement","Slight Agreement","Slight Agreement","Neither Agreement nor Disagreement","Very Strong Agreement","Moderate Agreement","Slight Agreement","Neither Agreement nor Disagreement","Moderate Agreement","Strong Agreement","Slight Agreement","Slight Disagreement","Moderate Agreement","Neither Agreement nor Disagreement","Moderate Agreement","Strong Agreement","Very Strong Agreement","Neither Agreement nor Disagreement"
"52","A303FIW2QB4TYO:3EFE17QCRDBMQJBV69QNO45IY6IHSS","1",2,4,3,"5","<p style=""font-size:100px""><b>g</b></p><p style=""position: absolute; top: 30px; right: 30px; text-align:right; font-size:50px"""">N = 3</p>","g",0,73,53,1,"agree",20,18,19,15,18,"30","male","yes.  instructions are clear.","Moderate Agreement","Slight Agreement","Slight Agreement","Neither Agreement nor Disagreement","Very Strong Agreement","Moderate Agreement","Slight Agreement","Neither Agreement nor Disagreement","Moderate Agreement","Strong Agreement","Slight Agreement","Slight Disagreement","Moderate Agreement","Neither Agreement nor Disagreement","Moderate Agreement","Strong Agreement","Very Strong Agreement","Neither Agreement nor Disagreement"
"53","A303FIW2QB4TYO:3EFE17QCRDBMQJBV69QNO45IY6IHSS","1",2,5,3,"5","<p style=""font-size:100px""><b>V</b></p><p style=""position: absolute; top: 30px; right: 30px; text-align:right; font-size:50px"""">N = 3</p>","V",0,73,30,1,"agree",20,18,19,15,18,"30","male","yes.  instructions are clear.","Moderate Agreement","Slight Agreement","Slight Agreement","Neither Agreement nor Disagreement","Very Strong Agreement","Moderate Agreement","Slight Agreement","Neither Agreement nor Disagreement","Moderate Agreement","Strong Agreement","Slight Agreement","Slight Disagreement","Moderate Agreement","Neither Agreement nor Disagreement","Moderate Agreement","Strong Agreement","Very Strong Agreement","Neither Agreement nor Disagreement"
"54","A303FIW2QB4TYO:3EFE17QCRDBMQJBV69QNO45IY6IHSS","1",2,6,3,"5","<p style=""font-size:100px""><b>D</b></p><p style=""position: absolute; top: 30px; right: 30px; text-align:right; font-size:50px"""">N = 3</p>","D",0,69,71,0,"agree",20,18,19,15,18,"30","male","yes.  instructions are clear.","Moderate Agreement","Slight Agreement","Slight Agreement","Neither Agreement nor Disagreement","Very Strong Agreement","Moderate Agreement","Slight Agreement","Neither Agreement nor Disagreement","Moderate Agreement","Strong Agreement","Slight Agreement","Slight Disagreement","Moderate Agreement","Neither Agreement nor Disagreement","Moderate Agreement","Strong Agreement","Very Strong Agreement","Neither Agreement nor Disagreement"
"55","A303FIW2QB4TYO:3EFE17QCRDBMQJBV69QNO45IY6IHSS","1",2,7,3,"5","<p style=""font-size:100px""><b>g</b></p><p style=""position: absolute; top: 30px; right: 30px; text-align:right; font-size:50px"""">N = 3</p>","g",0,69,39,0,"agree",20,18,19,15,18,"30","male","yes.  instructions are clear.","Moderate Agreement","Slight Agreement","Slight Agreement","Neither Agreement nor Disagreement","Very Strong Agreement","Moderate Agreement","Slight Agreement","Neither Agreement nor Disagreement","Moderate Agreement","Strong Agreement","Slight Agreement","Slight Disagreement","Moderate Agreement","Neither Agreement nor Disagreement","Moderate Agreement","Strong Agreement","Very Strong Agreement","Neither Agreement nor Disagreement"
"56","A303FIW2QB4TYO:3EFE17QCRDBMQJBV69QNO45IY6IHSS","1",2,8,3,"5","<p style=""font-size:100px""><b>V</b></p><p style=""position: absolute; top: 30px; right: 30px; text-align:right; font-size:50px"""">N = 3</p>","V",0,69,140,0,"agree",20,18,19,15,18,"30","male","yes.  instructions are clear.","Moderate Agreement","Slight Agreement","Slight Agreement","Neither Agreement nor Disagreement","Very Strong Agreement","Moderate Agreement","Slight Agreement","Neither Agreement nor Disagreement","Moderate Agreement","Strong Agreement","Slight Agreement","Slight Disagreement","Moderate Agreement","Neither Agreement nor Disagreement","Moderate Agreement","Strong Agreement","Very Strong Agreement","Neither Agreement nor Disagreement"
"57","A303FIW2QB4TYO:3EFE17QCRDBMQJBV69QNO45IY6IHSS","1",2,9,3,"5","<p style=""font-size:100px""><b>V</b></p><p style=""position: absolute; top: 30px; right: 30px; text-align:right; font-size:50px"""">N = 3</p>","V",0,73,62,1,"agree",20,18,19,15,18,"30","male","yes.  instructions are clear.","Moderate Agreement","Slight Agreement","Slight Agreement","Neither Agreement nor Disagreement","Very Strong Agreement","Moderate Agreement","Slight Agreement","Neither Agreement nor Disagreement","Moderate Agreement","Strong Agreement","Slight Agreement","Slight Disagreement","Moderate Agreement","Neither Agreement nor Disagreement","Moderate Agreement","Strong Agreement","Very Strong Agreement","Neither Agreement nor Disagreement"
"58","A303FIW2QB4TYO:3EFE17QCRDBMQJBV69QNO45IY6IHSS","1",2,10,3,"5","<p style=""font-size:100px""><b>D</b></p><p style=""position: absolute; top: 30px; right: 30px; text-align:right; font-size:50px"""">N = 3</p>","D",0,69,162,0,"agree",20,18,19,15,18,"30","male","yes.  instructions are clear.","Moderate Agreement","Slight Agreement","Slight Agreement","Neither Agreement nor Disagreement","Very Strong Agreement","Moderate Agreement","Slight Agreement","Neither Agreement nor Disagreement","Moderate Agreement","Strong Agreement","Slight Agreement","Slight Disagreement","Moderate Agreement","Neither Agreement nor Disagreement","Moderate Agreement","Strong Agreement","Very Strong Agreement","Neither Agreement nor Disagreement"
"59","A303FIW2QB4TYO:3EFE17QCRDBMQJBV69QNO45IY6IHSS","1",2,11,3,"5","<p style=""font-size:100px""><b>t</b></p><p style=""position: absolute; top: 30px; right: 30px; text-align:right; font-size:50px"""">N = 3</p>","t",0,73,59,1,"agree",20,18,19,15,18,"30","male","yes.  instructions are clear.","Moderate Agreement","Slight Agreement","Slight Agreement","Neither Agreement nor Disagreement","Very Strong Agreement","Moderate Agreement","Slight Agreement","Neither Agreement nor Disagreement","Moderate Agreement","Strong Agreement","Slight Agreement","Slight Disagreement","Moderate Agreement","Neither Agreement nor Disagreement","Moderate Agreement","Strong Agreement","Very Strong Agreement","Neither Agreement nor Disagreement"
"60","A303FIW2QB4TYO:3EFE17QCRDBMQJBV69QNO45IY6IHSS","1",2,12,3,"5","<p style=""font-size:100px""><b>G</b></p><p style=""position: absolute; top: 30px; right: 30px; text-align:right; font-size:50px"""">N = 3</p>","G",0,69,67,0,"agree",20,18,19,15,18,"30","male","yes.  instructions are clear.","Moderate Agreement","Slight Agreement","Slight Agreement","Neither Agreement nor Disagreement","Very Strong Agreement","Moderate Agreement","Slight Agreement","Neither Agreement nor Disagreement","Moderate Agreement","Strong Agreement","Slight Agreement","Slight Disagreement","Moderate Agreement","Neither Agreement nor Disagreement","Moderate Agreement","Strong Agreement","Very Strong Agreement","Neither Agreement nor Disagreement"
"61","A303FIW2QB4TYO:3EFE17QCRDBMQJBV69QNO45IY6IHSS","1",3,1,1,"50","<p style=""font-size:100px""><b>v</b></p><p style=""position: absolute; top: 30px; right: 30px; text-align:right; font-size:50px"""">N = 1</p>","v",0,73,5,1,"agree",19,16,15,19,17,"30","male","yes.  instructions are clear.","Moderate Agreement","Slight Agreement","Slight Agreement","Neither Agreement nor Disagreement","Very Strong Agreement","Moderate Agreement","Slight Agreement","Neither Agreement nor Disagreement","Moderate Agreement","Strong Agreement","Slight Agreement","Slight Disagreement","Moderate Agreement","Neither Agreement nor Disagreement","Moderate Agreement","Strong Agreement","Very Strong Agreement","Neither Agreement nor Disagreement"
"62","A303FIW2QB4TYO:3EFE17QCRDBMQJBV69QNO45IY6IHSS","1",3,2,1,"50","<p style=""font-size:100px""><b>v</b></p><p style=""position: absolute; top: 30px; right: 30px; text-align:right; font-size:50px"""">N = 1</p>","v",0,69,39,0,"agree",19,16,15,19,17,"30","male","yes.  instructions are clear.","Moderate Agreement","Slight Agreement","Slight Agreement","Neither Agreement nor Disagreement","Very Strong Agreement","Moderate Agreement","Slight Agreement","Neither Agreement nor Disagreement","Moderate Agreement","Strong Agreement","Slight Agreement","Slight Disagreement","Moderate Agreement","Neither Agreement nor Disagreement","Moderate Agreement","Strong Agreement","Very Strong Agreement","Neither Agreement nor Disagreement"
"63","A303FIW2QB4TYO:3EFE17QCRDBMQJBV69QNO45IY6IHSS","1",3,3,1,"50","<p style=""font-size:100px""><b>p</b></p><p style=""position: absolute; top: 30px; right: 30px; text-align:right; font-size:50px"""">N = 1</p>","p",0,73,56,1,"agree",19,16,15,19,17,"30","male","yes.  instructions are clear.","Moderate Agreement","Slight Agreement","Slight Agreement","Neither Agreement nor Disagreement","Very Strong Agreement","Moderate Agreement","Slight Agreement","Neither Agreement nor Disagreement","Moderate Agreement","Strong Agreement","Slight Agreement","Slight Disagreement","Moderate Agreement","Neither Agreement nor Disagreement","Moderate Agreement","Strong Agreement","Very Strong Agreement","Neither Agreement nor Disagreement"
"64","A303FIW2QB4TYO:3EFE17QCRDBMQJBV69QNO45IY6IHSS","1",3,4,1,"50","<p style=""font-size:100px""><b>p</b></p><p style=""position: absolute; top: 30px; right: 30px; text-align:right; font-size:50px"""">N = 1</p>","p",0,69,98,0,"agree",19,16,15,19,17,"30","male","yes.  instructions are clear.","Moderate Agreement","Slight Agreement","Slight Agreement","Neither Agreement nor Disagreement","Very Strong Agreement","Moderate Agreement","Slight Agreement","Neither Agreement nor Disagreement","Moderate Agreement","Strong Agreement","Slight Agreement","Slight Disagreement","Moderate Agreement","Neither Agreement nor Disagreement","Moderate Agreement","Strong Agreement","Very Strong Agreement","Neither Agreement nor Disagreement"
"65","A303FIW2QB4TYO:3EFE17QCRDBMQJBV69QNO45IY6IHSS","1",3,5,1,"50","<p style=""font-size:100px""><b>p</b></p><p style=""position: absolute; top: 30px; right: 30px; text-align:right; font-size:50px"""">N = 1</p>","p",0,73,148,1,"agree",19,16,15,19,17,"30","male","yes.  instructions are clear.","Moderate Agreement","Slight Agreement","Slight Agreement","Neither Agreement nor Disagreement","Very Strong Agreement","Moderate Agreement","Slight Agreement","Neither Agreement nor Disagreement","Moderate Agreement","Strong Agreement","Slight Agreement","Slight Disagreement","Moderate Agreement","Neither Agreement nor Disagreement","Moderate Agreement","Strong Agreement","Very Strong Agreement","Neither Agreement nor Disagreement"
"66","A303FIW2QB4TYO:3EFE17QCRDBMQJBV69QNO45IY6IHSS","1",3,6,1,"50","<p style=""font-size:100px""><b>b</b></p><p style=""position: absolute; top: 30px; right: 30px; text-align:right; font-size:50px"""">N = 1</p>","b",0,73,28,1,"agree",19,16,15,19,17,"30","male","yes.  instructions are clear.","Moderate Agreement","Slight Agreement","Slight Agreement","Neither Agreement nor Disagreement","Very Strong Agreement","Moderate Agreement","Slight Agreement","Neither Agreement nor Disagreement","Moderate Agreement","Strong Agreement","Slight Agreement","Slight Disagreement","Moderate Agreement","Neither Agreement nor Disagreement","Moderate Agreement","Strong Agreement","Very Strong Agreement","Neither Agreement nor Disagreement"
"67","A303FIW2QB4TYO:3EFE17QCRDBMQJBV69QNO45IY6IHSS","1",3,7,1,"50","<p style=""font-size:100px""><b>g</b></p><p style=""position: absolute; top: 30px; right: 30px; text-align:right; font-size:50px"""">N = 1</p>","g",0,69,102,0,"agree",19,16,15,19,17,"30","male","yes.  instructions are clear.","Moderate Agreement","Slight Agreement","Slight Agreement","Neither Agreement nor Disagreement","Very Strong Agreement","Moderate Agreement","Slight Agreement","Neither Agreement nor Disagreement","Moderate Agreement","Strong Agreement","Slight Agreement","Slight Disagreement","Moderate Agreement","Neither Agreement nor Disagreement","Moderate Agreement","Strong Agreement","Very Strong Agreement","Neither Agreement nor Disagreement"
"68","A303FIW2QB4TYO:3EFE17QCRDBMQJBV69QNO45IY6IHSS","1",3,8,1,"50","<p style=""font-size:100px""><b>T</b></p><p style=""position: absolute; top: 30px; right: 30px; text-align:right; font-size:50px"""">N = 1</p>","T",0,73,141,1,"agree",19,16,15,19,17,"30","male","yes.  instructions are clear.","Moderate Agreement","Slight Agreement","Slight Agreement","Neither Agreement nor Disagreement","Very Strong Agreement","Moderate Agreement","Slight Agreement","Neither Agreement nor Disagreement","Moderate Agreement","Strong Agreement","Slight Agreement","Slight Disagreement","Moderate Agreement","Neither Agreement nor Disagreement","Moderate Agreement","Strong Agreement","Very Strong Agreement","Neither Agreement nor Disagreement"
"69","A303FIW2QB4TYO:3EFE17QCRDBMQJBV69QNO45IY6IHSS","1",3,9,1,"50","<p style=""font-size:100px""><b>d</b></p><p style=""position: absolute; top: 30px; right: 30px; text-align:right; font-size:50px"""">N = 1</p>","d",0,73,57,1,"agree",19,16,15,19,17,"30","male","yes.  instructions are clear.","Moderate Agreement","Slight Agreement","Slight Agreement","Neither Agreement nor Disagreement","Very Strong Agreement","Moderate Agreement","Slight Agreement","Neither Agreement nor Disagreement","Moderate Agreement","Strong Agreement","Slight Agreement","Slight Disagreement","Moderate Agreement","Neither Agreement nor Disagreement","Moderate Agreement","Strong Agreement","Very Strong Agreement","Neither Agreement nor Disagreement"
"70","A303FIW2QB4TYO:3EFE17QCRDBMQJBV69QNO45IY6IHSS","1",3,10,1,"50","<p style=""font-size:100px""><b>d</b></p><p style=""position: absolute; top: 30px; right: 30px; text-align:right; font-size:50px"""">N = 1</p>","d",0,73,77,1,"agree",19,16,15,19,17,"30","male","yes.  instructions are clear.","Moderate Agreement","Slight Agreement","Slight Agreement","Neither Agreement nor Disagreement","Very Strong Agreement","Moderate Agreement","Slight Agreement","Neither Agreement nor Disagreement","Moderate Agreement","Strong Agreement","Slight Agreement","Slight Disagreement","Moderate Agreement","Neither Agreement nor Disagreement","Moderate Agreement","Strong Agreement","Very Strong Agreement","Neither Agreement nor Disagreement"
"71","A303FIW2QB4TYO:3EFE17QCRDBMQJBV69QNO45IY6IHSS","1",3,11,1,"50","<p style=""font-size:100px""><b>g</b></p><p style=""position: absolute; top: 30px; right: 30px; text-align:right; font-size:50px"""">N = 1</p>","g",0,73,55,1,"agree",19,16,15,19,17,"30","male","yes.  instructions are clear.","Moderate Agreement","Slight Agreement","Slight Agreement","Neither Agreement nor Disagreement","Very Strong Agreement","Moderate Agreement","Slight Agreement","Neither Agreement nor Disagreement","Moderate Agreement","Strong Agreement","Slight Agreement","Slight Disagreement","Moderate Agreement","Neither Agreement nor Disagreement","Moderate Agreement","Strong Agreement","Very Strong Agreement","Neither Agreement nor Disagreement"
"72","A303FIW2QB4TYO:3EFE17QCRDBMQJBV69QNO45IY6IHSS","1",3,12,1,"50","<p style=""font-size:100px""><b>b</b></p><p style=""position: absolute; top: 30px; right: 30px; text-align:right; font-size:50px"""">N = 1</p>","b",0,69,135,0,"agree",19,16,15,19,17,"30","male","yes.  instructions are clear.","Moderate Agreement","Slight Agreement","Slight Agreement","Neither Agreement nor Disagreement","Very Strong Agreement","Moderate Agreement","Slight Agreement","Neither Agreement nor Disagreement","Moderate Agreement","Strong Agreement","Slight Agreement","Slight Disagreement","Moderate Agreement","Neither Agreement nor Disagreement","Moderate Agreement","Strong Agreement","Very Strong Agreement","Neither Agreement nor Disagreement"
"73","A303FIW2QB4TYO:3EFE17QCRDBMQJBV69QNO45IY6IHSS","1",4,1,3,"50","<p style=""font-size:100px""><b>G</b></p><p style=""position: absolute; top: 30px; right: 30px; text-align:right; font-size:50px"""">N = 3</p>","G",0,69,23,0,"agree",19,15,17,14,18,"30","male","yes.  instructions are clear.","Moderate Agreement","Slight Agreement","Slight Agreement","Neither Agreement nor Disagreement","Very Strong Agreement","Moderate Agreement","Slight Agreement","Neither Agreement nor Disagreement","Moderate Agreement","Strong Agreement","Slight Agreement","Slight Disagreement","Moderate Agreement","Neither Agreement nor Disagreement","Moderate Agreement","Strong Agreement","Very Strong Agreement","Neither Agreement nor Disagreement"
"74","A303FIW2QB4TYO:3EFE17QCRDBMQJBV69QNO45IY6IHSS","1",4,2,3,"50","<p style=""font-size:100px""><b>v</b></p><p style=""position: absolute; top: 30px; right: 30px; text-align:right; font-size:50px"""">N = 3</p>","v",0,73,63,1,"agree",19,15,17,14,18,"30","male","yes.  instructions are clear.","Moderate Agreement","Slight Agreement","Slight Agreement","Neither Agreement nor Disagreement","Very Strong Agreement","Moderate Agreement","Slight Agreement","Neither Agreement nor Disagreement","Moderate Agreement","Strong Agreement","Slight Agreement","Slight Disagreement","Moderate Agreement","Neither Agreement nor Disagreement","Moderate Agreement","Strong Agreement","Very Strong Agreement","Neither Agreement nor Disagreement"
"75","A303FIW2QB4TYO:3EFE17QCRDBMQJBV69QNO45IY6IHSS","1",4,3,3,"50","<p style=""font-size:100px""><b>b</b></p><p style=""position: absolute; top: 30px; right: 30px; text-align:right; font-size:50px"""">N = 3</p>","b",0,69,38,0,"agree",19,15,17,14,18,"30","male","yes.  instructions are clear.","Moderate Agreement","Slight Agreement","Slight Agreement","Neither Agreement nor Disagreement","Very Strong Agreement","Moderate Agreement","Slight Agreement","Neither Agreement nor Disagreement","Moderate Agreement","Strong Agreement","Slight Agreement","Slight Disagreement","Moderate Agreement","Neither Agreement nor Disagreement","Moderate Agreement","Strong Agreement","Very Strong Agreement","Neither Agreement nor Disagreement"
"76","A303FIW2QB4TYO:3EFE17QCRDBMQJBV69QNO45IY6IHSS","1",4,4,3,"50","<p style=""font-size:100px""><b>G</b></p><p style=""position: absolute; top: 30px; right: 30px; text-align:right; font-size:50px"""">N = 3</p>","G",0,69,119,0,"agree",19,15,17,14,18,"30","male","yes.  instructions are clear.","Moderate Agreement","Slight Agreement","Slight Agreement","Neither Agreement nor Disagreement","Very Strong Agreement","Moderate Agreement","Slight Agreement","Neither Agreement nor Disagreement","Moderate Agreement","Strong Agreement","Slight Agreement","Slight Disagreement","Moderate Agreement","Neither Agreement nor Disagreement","Moderate Agreement","Strong Agreement","Very Strong Agreement","Neither Agreement nor Disagreement"
"77","A303FIW2QB4TYO:3EFE17QCRDBMQJBV69QNO45IY6IHSS","1",4,5,3,"50","<p style=""font-size:100px""><b>v</b></p><p style=""position: absolute; top: 30px; right: 30px; text-align:right; font-size:50px"""">N = 3</p>","v",0,73,141,1,"agree",19,15,17,14,18,"30","male","yes.  instructions are clear.","Moderate Agreement","Slight Agreement","Slight Agreement","Neither Agreement nor Disagreement","Very Strong Agreement","Moderate Agreement","Slight Agreement","Neither Agreement nor Disagreement","Moderate Agreement","Strong Agreement","Slight Agreement","Slight Disagreement","Moderate Agreement","Neither Agreement nor Disagreement","Moderate Agreement","Strong Agreement","Very Strong Agreement","Neither Agreement nor Disagreement"
"78","A303FIW2QB4TYO:3EFE17QCRDBMQJBV69QNO45IY6IHSS","1",4,6,3,"50","<p style=""font-size:100px""><b>D</b></p><p style=""position: absolute; top: 30px; right: 30px; text-align:right; font-size:50px"""">N = 3</p>","D",0,73,55,1,"agree",19,15,17,14,18,"30","male","yes.  instructions are clear.","Moderate Agreement","Slight Agreement","Slight Agreement","Neither Agreement nor Disagreement","Very Strong Agreement","Moderate Agreement","Slight Agreement","Neither Agreement nor Disagreement","Moderate Agreement","Strong Agreement","Slight Agreement","Slight Disagreement","Moderate Agreement","Neither Agreement nor Disagreement","Moderate Agreement","Strong Agreement","Very Strong Agreement","Neither Agreement nor Disagreement"
"79","A303FIW2QB4TYO:3EFE17QCRDBMQJBV69QNO45IY6IHSS","1",4,7,3,"50","<p style=""font-size:100px""><b>T</b></p><p style=""position: absolute; top: 30px; right: 30px; text-align:right; font-size:50px"""">N = 3</p>","T",0,69,125,0,"agree",19,15,17,14,18,"30","male","yes.  instructions are clear.","Moderate Agreement","Slight Agreement","Slight Agreement","Neither Agreement nor Disagreement","Very Strong Agreement","Moderate Agreement","Slight Agreement","Neither Agreement nor Disagreement","Moderate Agreement","Strong Agreement","Slight Agreement","Slight Disagreement","Moderate Agreement","Neither Agreement nor Disagreement","Moderate Agreement","Strong Agreement","Very Strong Agreement","Neither Agreement nor Disagreement"
"80","A303FIW2QB4TYO:3EFE17QCRDBMQJBV69QNO45IY6IHSS","1",4,8,3,"50","<p style=""font-size:100px""><b>v</b></p><p style=""position: absolute; top: 30px; right: 30px; text-align:right; font-size:50px"""">N = 3</p>","v",0,69,73,0,"agree",19,15,17,14,18,"30","male","yes.  instructions are clear.","Moderate Agreement","Slight Agreement","Slight Agreement","Neither Agreement nor Disagreement","Very Strong Agreement","Moderate Agreement","Slight Agreement","Neither Agreement nor Disagreement","Moderate Agreement","Strong Agreement","Slight Agreement","Slight Disagreement","Moderate Agreement","Neither Agreement nor Disagreement","Moderate Agreement","Strong Agreement","Very Strong Agreement","Neither Agreement nor Disagreement"
"81","A303FIW2QB4TYO:3EFE17QCRDBMQJBV69QNO45IY6IHSS","1",4,9,3,"50","<p style=""font-size:100px""><b>D</b></p><p style=""position: absolute; top: 30px; right: 30px; text-align:right; font-size:50px"""">N = 3</p>","D",0,69,29,0,"agree",19,15,17,14,18,"30","male","yes.  instructions are clear.","Moderate Agreement","Slight Agreement","Slight Agreement","Neither Agreement nor Disagreement","Very Strong Agreement","Moderate Agreement","Slight Agreement","Neither Agreement nor Disagreement","Moderate Agreement","Strong Agreement","Slight Agreement","Slight Disagreement","Moderate Agreement","Neither Agreement nor Disagreement","Moderate Agreement","Strong Agreement","Very Strong Agreement","Neither Agreement nor Disagreement"
"82","A303FIW2QB4TYO:3EFE17QCRDBMQJBV69QNO45IY6IHSS","1",4,10,3,"50","<p style=""font-size:100px""><b>V</b></p><p style=""position: absolute; top: 30px; right: 30px; text-align:right; font-size:50px"""">N = 3</p>","V",0,69,180,0,"agree",19,15,17,14,18,"30","male","yes.  instructions are clear.","Moderate Agreement","Slight Agreement","Slight Agreement","Neither Agreement nor Disagreement","Very Strong Agreement","Moderate Agreement","Slight Agreement","Neither Agreement nor Disagreement","Moderate Agreement","Strong Agreement","Slight Agreement","Slight Disagreement","Moderate Agreement","Neither Agreement nor Disagreement","Moderate Agreement","Strong Agreement","Very Strong Agreement","Neither Agreement nor Disagreement"
"83","A303FIW2QB4TYO:3EFE17QCRDBMQJBV69QNO45IY6IHSS","1",4,11,3,"50","<p style=""font-size:100px""><b>t</b></p><p style=""position: absolute; top: 30px; right: 30px; text-align:right; font-size:50px"""">N = 3</p>","t",0,69,55,0,"agree",19,15,17,14,18,"30","male","yes.  instructions are clear.","Moderate Agreement","Slight Agreement","Slight Agreement","Neither Agreement nor Disagreement","Very Strong Agreement","Moderate Agreement","Slight Agreement","Neither Agreement nor Disagreement","Moderate Agreement","Strong Agreement","Slight Agreement","Slight Disagreement","Moderate Agreement","Neither Agreement nor Disagreement","Moderate Agreement","Strong Agreement","Very Strong Agreement","Neither Agreement nor Disagreement"
"84","A303FIW2QB4TYO:3EFE17QCRDBMQJBV69QNO45IY6IHSS","1",4,12,3,"50","<p style=""font-size:100px""><b>B</b></p><p style=""position: absolute; top: 30px; right: 30px; text-align:right; font-size:50px"""">N = 3</p>","B",0,73,23,1,"agree",19,15,17,14,18,"30","male","yes.  instructions are clear.","Moderate Agreement","Slight Agreement","Slight Agreement","Neither Agreement nor Disagreement","Very Strong Agreement","Moderate Agreement","Slight Agreement","Neither Agreement nor Disagreement","Moderate Agreement","Strong Agreement","Slight Agreement","Slight Disagreement","Moderate Agreement","Neither Agreement nor Disagreement","Moderate Agreement","Strong Agreement","Very Strong Agreement","Neither Agreement nor Disagreement"
"85","A303FIW2QB4TYO:3EFE17QCRDBMQJBV69QNO45IY6IHSS","1",5,1,1,"50","<p style=""font-size:100px""><b>G</b></p><p style=""position: absolute; top: 30px; right: 30px; text-align:right; font-size:50px"""">N = 1</p>","G",0,73,58,1,"agree",16,19,15,16,19,"30","male","yes.  instructions are clear.","Moderate Agreement","Slight Agreement","Slight Agreement","Neither Agreement nor Disagreement","Very Strong Agreement","Moderate Agreement","Slight Agreement","Neither Agreement nor Disagreement","Moderate Agreement","Strong Agreement","Slight Agreement","Slight Disagreement","Moderate Agreement","Neither Agreement nor Disagreement","Moderate Agreement","Strong Agreement","Very Strong Agreement","Neither Agreement nor Disagreement"
"86","A303FIW2QB4TYO:3EFE17QCRDBMQJBV69QNO45IY6IHSS","1",5,2,1,"50","<p style=""font-size:100px""><b>G</b></p><p style=""position: absolute; top: 30px; right: 30px; text-align:right; font-size:50px"""">N = 1</p>","G",0,69,75,0,"agree",16,19,15,16,19,"30","male","yes.  instructions are clear.","Moderate Agreement","Slight Agreement","Slight Agreement","Neither Agreement nor Disagreement","Very Strong Agreement","Moderate Agreement","Slight Agreement","Neither Agreement nor Disagreement","Moderate Agreement","Strong Agreement","Slight Agreement","Slight Disagreement","Moderate Agreement","Neither Agreement nor Disagreement","Moderate Agreement","Strong Agreement","Very Strong Agreement","Neither Agreement nor Disagreement"
"87","A303FIW2QB4TYO:3EFE17QCRDBMQJBV69QNO45IY6IHSS","1",5,3,1,"50","<p style=""font-size:100px""><b>d</b></p><p style=""position: absolute; top: 30px; right: 30px; text-align:right; font-size:50px"""">N = 1</p>","d",0,73,24,1,"agree",16,19,15,16,19,"30","male","yes.  instructions are clear.","Moderate Agreement","Slight Agreement","Slight Agreement","Neither Agreement nor Disagreement","Very Strong Agreement","Moderate Agreement","Slight Agreement","Neither Agreement nor Disagreement","Moderate Agreement","Strong Agreement","Slight Agreement","Slight Disagreement","Moderate Agreement","Neither Agreement nor Disagreement","Moderate Agreement","Strong Agreement","Very Strong Agreement","Neither Agreement nor Disagreement"
"88","A303FIW2QB4TYO:3EFE17QCRDBMQJBV69QNO45IY6IHSS","1",5,4,1,"50","<p style=""font-size:100px""><b>g</b></p><p style=""position: absolute; top: 30px; right: 30px; text-align:right; font-size:50px"""">N = 1</p>","g",0,69,96,0,"agree",16,19,15,16,19,"30","male","yes.  instructions are clear.","Moderate Agreement","Slight Agreement","Slight Agreement","Neither Agreement nor Disagreement","Very Strong Agreement","Moderate Agreement","Slight Agreement","Neither Agreement nor Disagreement","Moderate Agreement","Strong Agreement","Slight Agreement","Slight Disagreement","Moderate Agreement","Neither Agreement nor Disagreement","Moderate Agreement","Strong Agreement","Very Strong Agreement","Neither Agreement nor Disagreement"
"89","A303FIW2QB4TYO:3EFE17QCRDBMQJBV69QNO45IY6IHSS","1",5,5,1,"50","<p style=""font-size:100px""><b>D</b></p><p style=""position: absolute; top: 30px; right: 30px; text-align:right; font-size:50px"""">N = 1</p>","D",0,73,39,1,"agree",16,19,15,16,19,"30","male","yes.  instructions are clear.","Moderate Agreement","Slight Agreement","Slight Agreement","Neither Agreement nor Disagreement","Very Strong Agreement","Moderate Agreement","Slight Agreement","Neither Agreement nor Disagreement","Moderate Agreement","Strong Agreement","Slight Agreement","Slight Disagreement","Moderate Agreement","Neither Agreement nor Disagreement","Moderate Agreement","Strong Agreement","Very Strong Agreement","Neither Agreement nor Disagreement"
"90","A303FIW2QB4TYO:3EFE17QCRDBMQJBV69QNO45IY6IHSS","1",5,6,1,"50","<p style=""font-size:100px""><b>P</b></p><p style=""position: absolute; top: 30px; right: 30px; text-align:right; font-size:50px"""">N = 1</p>","P",0,69,90,0,"agree",16,19,15,16,19,"30","male","yes.  instructions are clear.","Moderate Agreement","Slight Agreement","Slight Agreement","Neither Agreement nor Disagreement","Very Strong Agreement","Moderate Agreement","Slight Agreement","Neither Agreement nor Disagreement","Moderate Agreement","Strong Agreement","Slight Agreement","Slight Disagreement","Moderate Agreement","Neither Agreement nor Disagreement","Moderate Agreement","Strong Agreement","Very Strong Agreement","Neither Agreement nor Disagreement"
"91","A303FIW2QB4TYO:3EFE17QCRDBMQJBV69QNO45IY6IHSS","1",5,7,1,"50","<p style=""font-size:100px""><b>P</b></p><p style=""position: absolute; top: 30px; right: 30px; text-align:right; font-size:50px"""">N = 1</p>","P",0,69,8,0,"agree",16,19,15,16,19,"30","male","yes.  instructions are clear.","Moderate Agreement","Slight Agreement","Slight Agreement","Neither Agreement nor Disagreement","Very Strong Agreement","Moderate Agreement","Slight Agreement","Neither Agreement nor Disagreement","Moderate Agreement","Strong Agreement","Slight Agreement","Slight Disagreement","Moderate Agreement","Neither Agreement nor Disagreement","Moderate Agreement","Strong Agreement","Very Strong Agreement","Neither Agreement nor Disagreement"
"92","A303FIW2QB4TYO:3EFE17QCRDBMQJBV69QNO45IY6IHSS","1",5,8,1,"50","<p style=""font-size:100px""><b>G</b></p><p style=""position: absolute; top: 30px; right: 30px; text-align:right; font-size:50px"""">N = 1</p>","G",0,69,154,0,"agree",16,19,15,16,19,"30","male","yes.  instructions are clear.","Moderate Agreement","Slight Agreement","Slight Agreement","Neither Agreement nor Disagreement","Very Strong Agreement","Moderate Agreement","Slight Agreement","Neither Agreement nor Disagreement","Moderate Agreement","Strong Agreement","Slight Agreement","Slight Disagreement","Moderate Agreement","Neither Agreement nor Disagreement","Moderate Agreement","Strong Agreement","Very Strong Agreement","Neither Agreement nor Disagreement"
"93","A303FIW2QB4TYO:3EFE17QCRDBMQJBV69QNO45IY6IHSS","1",5,9,1,"50","<p style=""font-size:100px""><b>b</b></p><p style=""position: absolute; top: 30px; right: 30px; text-align:right; font-size:50px"""">N = 1</p>","b",0,69,42,0,"agree",16,19,15,16,19,"30","male","yes.  instructions are clear.","Moderate Agreement","Slight Agreement","Slight Agreement","Neither Agreement nor Disagreement","Very Strong Agreement","Moderate Agreement","Slight Agreement","Neither Agreement nor Disagreement","Moderate Agreement","Strong Agreement","Slight Agreement","Slight Disagreement","Moderate Agreement","Neither Agreement nor Disagreement","Moderate Agreement","Strong Agreement","Very Strong Agreement","Neither Agreement nor Disagreement"
"94","A303FIW2QB4TYO:3EFE17QCRDBMQJBV69QNO45IY6IHSS","1",5,10,1,"50","<p style=""font-size:100px""><b>b</b></p><p style=""position: absolute; top: 30px; right: 30px; text-align:right; font-size:50px"""">N = 1</p>","b",0,73,150,1,"agree",16,19,15,16,19,"30","male","yes.  instructions are clear.","Moderate Agreement","Slight Agreement","Slight Agreement","Neither Agreement nor Disagreement","Very Strong Agreement","Moderate Agreement","Slight Agreement","Neither Agreement nor Disagreement","Moderate Agreement","Strong Agreement","Slight Agreement","Slight Disagreement","Moderate Agreement","Neither Agreement nor Disagreement","Moderate Agreement","Strong Agreement","Very Strong Agreement","Neither Agreement nor Disagreement"
"95","A303FIW2QB4TYO:3EFE17QCRDBMQJBV69QNO45IY6IHSS","1",5,11,1,"50","<p style=""font-size:100px""><b>b</b></p><p style=""position: absolute; top: 30px; right: 30px; text-align:right; font-size:50px"""">N = 1</p>","b",0,73,128,1,"agree",16,19,15,16,19,"30","male","yes.  instructions are clear.","Moderate Agreement","Slight Agreement","Slight Agreement","Neither Agreement nor Disagreement","Very Strong Agreement","Moderate Agreement","Slight Agreement","Neither Agreement nor Disagreement","Moderate Agreement","Strong Agreement","Slight Agreement","Slight Disagreement","Moderate Agreement","Neither Agreement nor Disagreement","Moderate Agreement","Strong Agreement","Very Strong Agreement","Neither Agreement nor Disagreement"
"96","A303FIW2QB4TYO:3EFE17QCRDBMQJBV69QNO45IY6IHSS","1",5,12,1,"50","<p style=""font-size:100px""><b>P</b></p><p style=""position: absolute; top: 30px; right: 30px; text-align:right; font-size:50px"""">N = 1</p>","P",0,69,65,0,"agree",16,19,15,16,19,"30","male","yes.  instructions are clear.","Moderate Agreement","Slight Agreement","Slight Agreement","Neither Agreement nor Disagreement","Very Strong Agreement","Moderate Agreement","Slight Agreement","Neither Agreement nor Disagreement","Moderate Agreement","Strong Agreement","Slight Agreement","Slight Disagreement","Moderate Agreement","Neither Agreement nor Disagreement","Moderate Agreement","Strong Agreement","Very Strong Agreement","Neither Agreement nor Disagreement"
"97","A303FIW2QB4TYO:3EFE17QCRDBMQJBV69QNO45IY6IHSS","1",6,1,3,"5","<p style=""font-size:100px""><b>P</b></p><p style=""position: absolute; top: 30px; right: 30px; text-align:right; font-size:50px"""">N = 3</p>","P",0,73,100,1,"agree",19,16,13,18,15,"30","male","yes.  instructions are clear.","Moderate Agreement","Slight Agreement","Slight Agreement","Neither Agreement nor Disagreement","Very Strong Agreement","Moderate Agreement","Slight Agreement","Neither Agreement nor Disagreement","Moderate Agreement","Strong Agreement","Slight Agreement","Slight Disagreement","Moderate Agreement","Neither Agreement nor Disagreement","Moderate Agreement","Strong Agreement","Very Strong Agreement","Neither Agreement nor Disagreement"
"98","A303FIW2QB4TYO:3EFE17QCRDBMQJBV69QNO45IY6IHSS","1",6,2,3,"5","<p style=""font-size:100px""><b>d</b></p><p style=""position: absolute; top: 30px; right: 30px; text-align:right; font-size:50px"""">N = 3</p>","d",0,73,62,1,"agree",19,16,13,18,15,"30","male","yes.  instructions are clear.","Moderate Agreement","Slight Agreement","Slight Agreement","Neither Agreement nor Disagreement","Very Strong Agreement","Moderate Agreement","Slight Agreement","Neither Agreement nor Disagreement","Moderate Agreement","Strong Agreement","Slight Agreement","Slight Disagreement","Moderate Agreement","Neither Agreement nor Disagreement","Moderate Agreement","Strong Agreement","Very Strong Agreement","Neither Agreement nor Disagreement"
"99","A303FIW2QB4TYO:3EFE17QCRDBMQJBV69QNO45IY6IHSS","1",6,3,3,"5","<p style=""font-size:100px""><b>g</b></p><p style=""position: absolute; top: 30px; right: 30px; text-align:right; font-size:50px"""">N = 3</p>","g",0,69,19,0,"agree",19,16,13,18,15,"30","male","yes.  instructions are clear.","Moderate Agreement","Slight Agreement","Slight Agreement","Neither Agreement nor Disagreement","Very Strong Agreement","Moderate Agreement","Slight Agreement","Neither Agreement nor Disagreement","Moderate Agreement","Strong Agreement","Slight Agreement","Slight Disagreement","Moderate Agreement","Neither Agreement nor Disagreement","Moderate Agreement","Strong Agreement","Very Strong Agreement","Neither Agreement nor Disagreement"
"100","A303FIW2QB4TYO:3EFE17QCRDBMQJBV69QNO45IY6IHSS","1",6,4,3,"5","<p style=""font-size:100px""><b>P</b></p><p style=""position: absolute; top: 30px; right: 30px; text-align:right; font-size:50px"""">N = 3</p>","P",0,73,298,1,"agree",19,16,13,18,15,"30","male","yes.  instructions are clear.","Moderate Agreement","Slight Agreement","Slight Agreement","Neither Agreement nor Disagreement","Very Strong Agreement","Moderate Agreement","Slight Agreement","Neither Agreement nor Disagreement","Moderate Agreement","Strong Agreement","Slight Agreement","Slight Disagreement","Moderate Agreement","Neither Agreement nor Disagreement","Moderate Agreement","Strong Agreement","Very Strong Agreement","Neither Agreement nor Disagreement"
"101","A303FIW2QB4TYO:3EFE17QCRDBMQJBV69QNO45IY6IHSS","1",6,5,3,"5","<p style=""font-size:100px""><b>G</b></p><p style=""position: absolute; top: 30px; right: 30px; text-align:right; font-size:50px"""">N = 3</p>","G",0,69,448,0,"agree",19,16,13,18,15,"30","male","yes.  instructions are clear.","Moderate Agreement","Slight Agreement","Slight Agreement","Neither Agreement nor Disagreement","Very Strong Agreement","Moderate Agreement","Slight Agreement","Neither Agreement nor Disagreement","Moderate Agreement","Strong Agreement","Slight Agreement","Slight Disagreement","Moderate Agreement","Neither Agreement nor Disagreement","Moderate Agreement","Strong Agreement","Very Strong Agreement","Neither Agreement nor Disagreement"
"102","A303FIW2QB4TYO:3EFE17QCRDBMQJBV69QNO45IY6IHSS","1",6,6,3,"5","<p style=""font-size:100px""><b>B</b></p><p style=""position: absolute; top: 30px; right: 30px; text-align:right; font-size:50px"""">N = 3</p>","B",0,73,161,1,"agree",19,16,13,18,15,"30","male","yes.  instructions are clear.","Moderate Agreement","Slight Agreement","Slight Agreement","Neither Agreement nor Disagreement","Very Strong Agreement","Moderate Agreement","Slight Agreement","Neither Agreement nor Disagreement","Moderate Agreement","Strong Agreement","Slight Agreement","Slight Disagreement","Moderate Agreement","Neither Agreement nor Disagreement","Moderate Agreement","Strong Agreement","Very Strong Agreement","Neither Agreement nor Disagreement"
"103","A303FIW2QB4TYO:3EFE17QCRDBMQJBV69QNO45IY6IHSS","1",6,7,3,"5","<p style=""font-size:100px""><b>g</b></p><p style=""position: absolute; top: 30px; right: 30px; text-align:right; font-size:50px"""">N = 3</p>","g",0,73,172,1,"agree",19,16,13,18,15,"30","male","yes.  instructions are clear.","Moderate Agreement","Slight Agreement","Slight Agreement","Neither Agreement nor Disagreement","Very Strong Agreement","Moderate Agreement","Slight Agreement","Neither Agreement nor Disagreement","Moderate Agreement","Strong Agreement","Slight Agreement","Slight Disagreement","Moderate Agreement","Neither Agreement nor Disagreement","Moderate Agreement","Strong Agreement","Very Strong Agreement","Neither Agreement nor Disagreement"
"104","A303FIW2QB4TYO:3EFE17QCRDBMQJBV69QNO45IY6IHSS","1",6,8,3,"5","<p style=""font-size:100px""><b>v</b></p><p style=""position: absolute; top: 30px; right: 30px; text-align:right; font-size:50px"""">N = 3</p>","v",0,73,163,1,"agree",19,16,13,18,15,"30","male","yes.  instructions are clear.","Moderate Agreement","Slight Agreement","Slight Agreement","Neither Agreement nor Disagreement","Very Strong Agreement","Moderate Agreement","Slight Agreement","Neither Agreement nor Disagreement","Moderate Agreement","Strong Agreement","Slight Agreement","Slight Disagreement","Moderate Agreement","Neither Agreement nor Disagreement","Moderate Agreement","Strong Agreement","Very Strong Agreement","Neither Agreement nor Disagreement"
"105","A303FIW2QB4TYO:3EFE17QCRDBMQJBV69QNO45IY6IHSS","1",6,9,3,"5","<p style=""font-size:100px""><b>P</b></p><p style=""position: absolute; top: 30px; right: 30px; text-align:right; font-size:50px"""">N = 3</p>","P",0,69,72,0,"agree",19,16,13,18,15,"30","male","yes.  instructions are clear.","Moderate Agreement","Slight Agreement","Slight Agreement","Neither Agreement nor Disagreement","Very Strong Agreement","Moderate Agreement","Slight Agreement","Neither Agreement nor Disagreement","Moderate Agreement","Strong Agreement","Slight Agreement","Slight Disagreement","Moderate Agreement","Neither Agreement nor Disagreement","Moderate Agreement","Strong Agreement","Very Strong Agreement","Neither Agreement nor Disagreement"
"106","A303FIW2QB4TYO:3EFE17QCRDBMQJBV69QNO45IY6IHSS","1",6,10,3,"5","<p style=""font-size:100px""><b>g</b></p><p style=""position: absolute; top: 30px; right: 30px; text-align:right; font-size:50px"""">N = 3</p>","g",0,69,133,0,"agree",19,16,13,18,15,"30","male","yes.  instructions are clear.","Moderate Agreement","Slight Agreement","Slight Agreement","Neither Agreement nor Disagreement","Very Strong Agreement","Moderate Agreement","Slight Agreement","Neither Agreement nor Disagreement","Moderate Agreement","Strong Agreement","Slight Agreement","Slight Disagreement","Moderate Agreement","Neither Agreement nor Disagreement","Moderate Agreement","Strong Agreement","Very Strong Agreement","Neither Agreement nor Disagreement"
"107","A303FIW2QB4TYO:3EFE17QCRDBMQJBV69QNO45IY6IHSS","1",6,11,3,"5","<p style=""font-size:100px""><b>v</b></p><p style=""position: absolute; top: 30px; right: 30px; text-align:right; font-size:50px"""">N = 3</p>","v",0,73,157,1,"agree",19,16,13,18,15,"30","male","yes.  instructions are clear.","Moderate Agreement","Slight Agreement","Slight Agreement","Neither Agreement nor Disagreement","Very Strong Agreement","Moderate Agreement","Slight Agreement","Neither Agreement nor Disagreement","Moderate Agreement","Strong Agreement","Slight Agreement","Slight Disagreement","Moderate Agreement","Neither Agreement nor Disagreement","Moderate Agreement","Strong Agreement","Very Strong Agreement","Neither Agreement nor Disagreement"
"108","A303FIW2QB4TYO:3EFE17QCRDBMQJBV69QNO45IY6IHSS","1",6,12,3,"5","<p style=""font-size:100px""><b>P</b></p><p style=""position: absolute; top: 30px; right: 30px; text-align:right; font-size:50px"""">N = 3</p>","P",0,69,279,0,"agree",19,16,13,18,15,"30","male","yes.  instructions are clear.","Moderate Agreement","Slight Agreement","Slight Agreement","Neither Agreement nor Disagreement","Very Strong Agreement","Moderate Agreement","Slight Agreement","Neither Agreement nor Disagreement","Moderate Agreement","Strong Agreement","Slight Agreement","Slight Disagreement","Moderate Agreement","Neither Agreement nor Disagreement","Moderate Agreement","Strong Agreement","Very Strong Agreement","Neither Agreement nor Disagreement"
"109","A303FIW2QB4TYO:3EFE17QCRDBMQJBV69QNO45IY6IHSS","2",7,1,2,"5","<p style=""font-size:100px""><b>g</b></p><p style=""position: absolute; top: 30px; right: 30px; text-align:right; font-size:50px"""">N = 2</p>","g",0,69,169,0,"agree",18,15,21,12,16,"30","male","yes.  instructions are clear.","Moderate Agreement","Slight Agreement","Slight Agreement","Neither Agreement nor Disagreement","Very Strong Agreement","Moderate Agreement","Slight Agreement","Neither Agreement nor Disagreement","Moderate Agreement","Strong Agreement","Slight Agreement","Slight Disagreement","Moderate Agreement","Neither Agreement nor Disagreement","Moderate Agreement","Strong Agreement","Very Strong Agreement","Neither Agreement nor Disagreement"
"110","A303FIW2QB4TYO:3EFE17QCRDBMQJBV69QNO45IY6IHSS","2",7,2,2,"5","<p style=""font-size:100px""><b>v</b></p><p style=""position: absolute; top: 30px; right: 30px; text-align:right; font-size:50px"""">N = 2</p>","v",0,73,52,1,"agree",18,15,21,12,16,"30","male","yes.  instructions are clear.","Moderate Agreement","Slight Agreement","Slight Agreement","Neither Agreement nor Disagreement","Very Strong Agreement","Moderate Agreement","Slight Agreement","Neither Agreement nor Disagreement","Moderate Agreement","Strong Agreement","Slight Agreement","Slight Disagreement","Moderate Agreement","Neither Agreement nor Disagreement","Moderate Agreement","Strong Agreement","Very Strong Agreement","Neither Agreement nor Disagreement"
"111","A303FIW2QB4TYO:3EFE17QCRDBMQJBV69QNO45IY6IHSS","2",7,3,2,"5","<p style=""font-size:100px""><b>V</b></p><p style=""position: absolute; top: 30px; right: 30px; text-align:right; font-size:50px"""">N = 2</p>","V",0,69,148,0,"agree",18,15,21,12,16,"30","male","yes.  instructions are clear.","Moderate Agreement","Slight Agreement","Slight Agreement","Neither Agreement nor Disagreement","Very Strong Agreement","Moderate Agreement","Slight Agreement","Neither Agreement nor Disagreement","Moderate Agreement","Strong Agreement","Slight Agreement","Slight Disagreement","Moderate Agreement","Neither Agreement nor Disagreement","Moderate Agreement","Strong Agreement","Very Strong Agreement","Neither Agreement nor Disagreement"
"112","A303FIW2QB4TYO:3EFE17QCRDBMQJBV69QNO45IY6IHSS","2",7,4,2,"5","<p style=""font-size:100px""><b>p</b></p><p style=""position: absolute; top: 30px; right: 30px; text-align:right; font-size:50px"""">N = 2</p>","p",0,73,82,1,"agree",18,15,21,12,16,"30","male","yes.  instructions are clear.","Moderate Agreement","Slight Agreement","Slight Agreement","Neither Agreement nor Disagreement","Very Strong Agreement","Moderate Agreement","Slight Agreement","Neither Agreement nor Disagreement","Moderate Agreement","Strong Agreement","Slight Agreement","Slight Disagreement","Moderate Agreement","Neither Agreement nor Disagreement","Moderate Agreement","Strong Agreement","Very Strong Agreement","Neither Agreement nor Disagreement"
"113","A303FIW2QB4TYO:3EFE17QCRDBMQJBV69QNO45IY6IHSS","2",7,5,2,"5","<p style=""font-size:100px""><b>V</b></p><p style=""position: absolute; top: 30px; right: 30px; text-align:right; font-size:50px"""">N = 2</p>","V",0,73,34,1,"agree",18,15,21,12,16,"30","male","yes.  instructions are clear.","Moderate Agreement","Slight Agreement","Slight Agreement","Neither Agreement nor Disagreement","Very Strong Agreement","Moderate Agreement","Slight Agreement","Neither Agreement nor Disagreement","Moderate Agreement","Strong Agreement","Slight Agreement","Slight Disagreement","Moderate Agreement","Neither Agreement nor Disagreement","Moderate Agreement","Strong Agreement","Very Strong Agreement","Neither Agreement nor Disagreement"
"114","A303FIW2QB4TYO:3EFE17QCRDBMQJBV69QNO45IY6IHSS","2",7,6,2,"5","<p style=""font-size:100px""><b>B</b></p><p style=""position: absolute; top: 30px; right: 30px; text-align:right; font-size:50px"""">N = 2</p>","B",0,69,47,0,"agree",18,15,21,12,16,"30","male","yes.  instructions are clear.","Moderate Agreement","Slight Agreement","Slight Agreement","Neither Agreement nor Disagreement","Very Strong Agreement","Moderate Agreement","Slight Agreement","Neither Agreement nor Disagreement","Moderate Agreement","Strong Agreement","Slight Agreement","Slight Disagreement","Moderate Agreement","Neither Agreement nor Disagreement","Moderate Agreement","Strong Agreement","Very Strong Agreement","Neither Agreement nor Disagreement"
"115","A303FIW2QB4TYO:3EFE17QCRDBMQJBV69QNO45IY6IHSS","2",7,7,2,"5","<p style=""font-size:100px""><b>d</b></p><p style=""position: absolute; top: 30px; right: 30px; text-align:right; font-size:50px"""">N = 2</p>","d",0,69,178,0,"agree",18,15,21,12,16,"30","male","yes.  instructions are clear.","Moderate Agreement","Slight Agreement","Slight Agreement","Neither Agreement nor Disagreement","Very Strong Agreement","Moderate Agreement","Slight Agreement","Neither Agreement nor Disagreement","Moderate Agreement","Strong Agreement","Slight Agreement","Slight Disagreement","Moderate Agreement","Neither Agreement nor Disagreement","Moderate Agreement","Strong Agreement","Very Strong Agreement","Neither Agreement nor Disagreement"
"116","A303FIW2QB4TYO:3EFE17QCRDBMQJBV69QNO45IY6IHSS","2",7,8,2,"5","<p style=""font-size:100px""><b>d</b></p><p style=""position: absolute; top: 30px; right: 30px; text-align:right; font-size:50px"""">N = 2</p>","d",0,69,74,0,"agree",18,15,21,12,16,"30","male","yes.  instructions are clear.","Moderate Agreement","Slight Agreement","Slight Agreement","Neither Agreement nor Disagreement","Very Strong Agreement","Moderate Agreement","Slight Agreement","Neither Agreement nor Disagreement","Moderate Agreement","Strong Agreement","Slight Agreement","Slight Disagreement","Moderate Agreement","Neither Agreement nor Disagreement","Moderate Agreement","Strong Agreement","Very Strong Agreement","Neither Agreement nor Disagreement"
"117","A303FIW2QB4TYO:3EFE17QCRDBMQJBV69QNO45IY6IHSS","2",7,9,2,"5","<p style=""font-size:100px""><b>T</b></p><p style=""position: absolute; top: 30px; right: 30px; text-align:right; font-size:50px"""">N = 2</p>","T",0,73,56,1,"agree",18,15,21,12,16,"30","male","yes.  instructions are clear.","Moderate Agreement","Slight Agreement","Slight Agreement","Neither Agreement nor Disagreement","Very Strong Agreement","Moderate Agreement","Slight Agreement","Neither Agreement nor Disagreement","Moderate Agreement","Strong Agreement","Slight Agreement","Slight Disagreement","Moderate Agreement","Neither Agreement nor Disagreement","Moderate Agreement","Strong Agreement","Very Strong Agreement","Neither Agreement nor Disagreement"
"118","A303FIW2QB4TYO:3EFE17QCRDBMQJBV69QNO45IY6IHSS","2",7,10,2,"5","<p style=""font-size:100px""><b>d</b></p><p style=""position: absolute; top: 30px; right: 30px; text-align:right; font-size:50px"""">N = 2</p>","d",0,69,13,0,"agree",18,15,21,12,16,"30","male","yes.  instructions are clear.","Moderate Agreement","Slight Agreement","Slight Agreement","Neither Agreement nor Disagreement","Very Strong Agreement","Moderate Agreement","Slight Agreement","Neither Agreement nor Disagreement","Moderate Agreement","Strong Agreement","Slight Agreement","Slight Disagreement","Moderate Agreement","Neither Agreement nor Disagreement","Moderate Agreement","Strong Agreement","Very Strong Agreement","Neither Agreement nor Disagreement"
"119","A303FIW2QB4TYO:3EFE17QCRDBMQJBV69QNO45IY6IHSS","2",7,11,2,"5","<p style=""font-size:100px""><b>T</b></p><p style=""position: absolute; top: 30px; right: 30px; text-align:right; font-size:50px"""">N = 2</p>","T",0,69,64,0,"agree",18,15,21,12,16,"30","male","yes.  instructions are clear.","Moderate Agreement","Slight Agreement","Slight Agreement","Neither Agreement nor Disagreement","Very Strong Agreement","Moderate Agreement","Slight Agreement","Neither Agreement nor Disagreement","Moderate Agreement","Strong Agreement","Slight Agreement","Slight Disagreement","Moderate Agreement","Neither Agreement nor Disagreement","Moderate Agreement","Strong Agreement","Very Strong Agreement","Neither Agreement nor Disagreement"
"120","A303FIW2QB4TYO:3EFE17QCRDBMQJBV69QNO45IY6IHSS","2",7,12,2,"5","<p style=""font-size:100px""><b>d</b></p><p style=""position: absolute; top: 30px; right: 30px; text-align:right; font-size:50px"""">N = 2</p>","d",0,69,122,0,"agree",18,15,21,12,16,"30","male","yes.  instructions are clear.","Moderate Agreement","Slight Agreement","Slight Agreement","Neither Agreement nor Disagreement","Very Strong Agreement","Moderate Agreement","Slight Agreement","Neither Agreement nor Disagreement","Moderate Agreement","Strong Agreement","Slight Agreement","Slight Disagreement","Moderate Agreement","Neither Agreement nor Disagreement","Moderate Agreement","Strong Agreement","Very Strong Agreement","Neither Agreement nor Disagreement"
"121","A303FIW2QB4TYO:3EFE17QCRDBMQJBV69QNO45IY6IHSS","2",8,1,3,"50","<p style=""font-size:100px""><b>V</b></p><p style=""position: absolute; top: 30px; right: 30px; text-align:right; font-size:50px"""">N = 3</p>","V",0,69,35,0,"agree",15,18,15,13,18,"30","male","yes.  instructions are clear.","Moderate Agreement","Slight Agreement","Slight Agreement","Neither Agreement nor Disagreement","Very Strong Agreement","Moderate Agreement","Slight Agreement","Neither Agreement nor Disagreement","Moderate Agreement","Strong Agreement","Slight Agreement","Slight Disagreement","Moderate Agreement","Neither Agreement nor Disagreement","Moderate Agreement","Strong Agreement","Very Strong Agreement","Neither Agreement nor Disagreement"
"122","A303FIW2QB4TYO:3EFE17QCRDBMQJBV69QNO45IY6IHSS","2",8,2,3,"50","<p style=""font-size:100px""><b>G</b></p><p style=""position: absolute; top: 30px; right: 30px; text-align:right; font-size:50px"""">N = 3</p>","G",0,73,104,1,"agree",15,18,15,13,18,"30","male","yes.  instructions are clear.","Moderate Agreement","Slight Agreement","Slight Agreement","Neither Agreement nor Disagreement","Very Strong Agreement","Moderate Agreement","Slight Agreement","Neither Agreement nor Disagreement","Moderate Agreement","Strong Agreement","Slight Agreement","Slight Disagreement","Moderate Agreement","Neither Agreement nor Disagreement","Moderate Agreement","Strong Agreement","Very Strong Agreement","Neither Agreement nor Disagreement"
"123","A303FIW2QB4TYO:3EFE17QCRDBMQJBV69QNO45IY6IHSS","2",8,3,3,"50","<p style=""font-size:100px""><b>b</b></p><p style=""position: absolute; top: 30px; right: 30px; text-align:right; font-size:50px"""">N = 3</p>","b",0,73,88,1,"agree",15,18,15,13,18,"30","male","yes.  instructions are clear.","Moderate Agreement","Slight Agreement","Slight Agreement","Neither Agreement nor Disagreement","Very Strong Agreement","Moderate Agreement","Slight Agreement","Neither Agreement nor Disagreement","Moderate Agreement","Strong Agreement","Slight Agreement","Slight Disagreement","Moderate Agreement","Neither Agreement nor Disagreement","Moderate Agreement","Strong Agreement","Very Strong Agreement","Neither Agreement nor Disagreement"
"124","A303FIW2QB4TYO:3EFE17QCRDBMQJBV69QNO45IY6IHSS","2",8,4,3,"50","<p style=""font-size:100px""><b>V</b></p><p style=""position: absolute; top: 30px; right: 30px; text-align:right; font-size:50px"""">N = 3</p>","V",0,73,38,1,"agree",15,18,15,13,18,"30","male","yes.  instructions are clear.","Moderate Agreement","Slight Agreement","Slight Agreement","Neither Agreement nor Disagreement","Very Strong Agreement","Moderate Agreement","Slight Agreement","Neither Agreement nor Disagreement","Moderate Agreement","Strong Agreement","Slight Agreement","Slight Disagreement","Moderate Agreement","Neither Agreement nor Disagreement","Moderate Agreement","Strong Agreement","Very Strong Agreement","Neither Agreement nor Disagreement"
"125","A303FIW2QB4TYO:3EFE17QCRDBMQJBV69QNO45IY6IHSS","2",8,5,3,"50","<p style=""font-size:100px""><b>T</b></p><p style=""position: absolute; top: 30px; right: 30px; text-align:right; font-size:50px"""">N = 3</p>","T",0,73,29,1,"agree",15,18,15,13,18,"30","male","yes.  instructions are clear.","Moderate Agreement","Slight Agreement","Slight Agreement","Neither Agreement nor Disagreement","Very Strong Agreement","Moderate Agreement","Slight Agreement","Neither Agreement nor Disagreement","Moderate Agreement","Strong Agreement","Slight Agreement","Slight Disagreement","Moderate Agreement","Neither Agreement nor Disagreement","Moderate Agreement","Strong Agreement","Very Strong Agreement","Neither Agreement nor Disagreement"
"126","A303FIW2QB4TYO:3EFE17QCRDBMQJBV69QNO45IY6IHSS","2",8,6,3,"50","<p style=""font-size:100px""><b>b</b></p><p style=""position: absolute; top: 30px; right: 30px; text-align:right; font-size:50px"""">N = 3</p>","b",0,69,36,0,"agree",15,18,15,13,18,"30","male","yes.  instructions are clear.","Moderate Agreement","Slight Agreement","Slight Agreement","Neither Agreement nor Disagreement","Very Strong Agreement","Moderate Agreement","Slight Agreement","Neither Agreement nor Disagreement","Moderate Agreement","Strong Agreement","Slight Agreement","Slight Disagreement","Moderate Agreement","Neither Agreement nor Disagreement","Moderate Agreement","Strong Agreement","Very Strong Agreement","Neither Agreement nor Disagreement"
"127","A303FIW2QB4TYO:3EFE17QCRDBMQJBV69QNO45IY6IHSS","2",8,7,3,"50","<p style=""font-size:100px""><b>P</b></p><p style=""position: absolute; top: 30px; right: 30px; text-align:right; font-size:50px"""">N = 3</p>","P",0,73,60,1,"agree",15,18,15,13,18,"30","male","yes.  instructions are clear.","Moderate Agreement","Slight Agreement","Slight Agreement","Neither Agreement nor Disagreement","Very Strong Agreement","Moderate Agreement","Slight Agreement","Neither Agreement nor Disagreement","Moderate Agreement","Strong Agreement","Slight Agreement","Slight Disagreement","Moderate Agreement","Neither Agreement nor Disagreement","Moderate Agreement","Strong Agreement","Very Strong Agreement","Neither Agreement nor Disagreement"
"128","A303FIW2QB4TYO:3EFE17QCRDBMQJBV69QNO45IY6IHSS","2",8,8,3,"50","<p style=""font-size:100px""><b>T</b></p><p style=""position: absolute; top: 30px; right: 30px; text-align:right; font-size:50px"""">N = 3</p>","T",0,69,47,0,"agree",15,18,15,13,18,"30","male","yes.  instructions are clear.","Moderate Agreement","Slight Agreement","Slight Agreement","Neither Agreement nor Disagreement","Very Strong Agreement","Moderate Agreement","Slight Agreement","Neither Agreement nor Disagreement","Moderate Agreement","Strong Agreement","Slight Agreement","Slight Disagreement","Moderate Agreement","Neither Agreement nor Disagreement","Moderate Agreement","Strong Agreement","Very Strong Agreement","Neither Agreement nor Disagreement"
"129","A303FIW2QB4TYO:3EFE17QCRDBMQJBV69QNO45IY6IHSS","2",8,9,3,"50","<p style=""font-size:100px""><b>T</b></p><p style=""position: absolute; top: 30px; right: 30px; text-align:right; font-size:50px"""">N = 3</p>","T",0,69,92,0,"agree",15,18,15,13,18,"30","male","yes.  instructions are clear.","Moderate Agreement","Slight Agreement","Slight Agreement","Neither Agreement nor Disagreement","Very Strong Agreement","Moderate Agreement","Slight Agreement","Neither Agreement nor Disagreement","Moderate Agreement","Strong Agreement","Slight Agreement","Slight Disagreement","Moderate Agreement","Neither Agreement nor Disagreement","Moderate Agreement","Strong Agreement","Very Strong Agreement","Neither Agreement nor Disagreement"
"130","A303FIW2QB4TYO:3EFE17QCRDBMQJBV69QNO45IY6IHSS","2",8,10,3,"50","<p style=""font-size:100px""><b>G</b></p><p style=""position: absolute; top: 30px; right: 30px; text-align:right; font-size:50px"""">N = 3</p>","G",0,69,176,0,"agree",15,18,15,13,18,"30","male","yes.  instructions are clear.","Moderate Agreement","Slight Agreement","Slight Agreement","Neither Agreement nor Disagreement","Very Strong Agreement","Moderate Agreement","Slight Agreement","Neither Agreement nor Disagreement","Moderate Agreement","Strong Agreement","Slight Agreement","Slight Disagreement","Moderate Agreement","Neither Agreement nor Disagreement","Moderate Agreement","Strong Agreement","Very Strong Agreement","Neither Agreement nor Disagreement"
"131","A303FIW2QB4TYO:3EFE17QCRDBMQJBV69QNO45IY6IHSS","2",8,11,3,"50","<p style=""font-size:100px""><b>D</b></p><p style=""position: absolute; top: 30px; right: 30px; text-align:right; font-size:50px"""">N = 3</p>","D",0,73,127,1,"agree",15,18,15,13,18,"30","male","yes.  instructions are clear.","Moderate Agreement","Slight Agreement","Slight Agreement","Neither Agreement nor Disagreement","Very Strong Agreement","Moderate Agreement","Slight Agreement","Neither Agreement nor Disagreement","Moderate Agreement","Strong Agreement","Slight Agreement","Slight Disagreement","Moderate Agreement","Neither Agreement nor Disagreement","Moderate Agreement","Strong Agreement","Very Strong Agreement","Neither Agreement nor Disagreement"
"132","A303FIW2QB4TYO:3EFE17QCRDBMQJBV69QNO45IY6IHSS","2",8,12,3,"50","<p style=""font-size:100px""><b>T</b></p><p style=""position: absolute; top: 30px; right: 30px; text-align:right; font-size:50px"""">N = 3</p>","T",0,73,89,1,"agree",15,18,15,13,18,"30","male","yes.  instructions are clear.","Moderate Agreement","Slight Agreement","Slight Agreement","Neither Agreement nor Disagreement","Very Strong Agreement","Moderate Agreement","Slight Agreement","Neither Agreement nor Disagreement","Moderate Agreement","Strong Agreement","Slight Agreement","Slight Disagreement","Moderate Agreement","Neither Agreement nor Disagreement","Moderate Agreement","Strong Agreement","Very Strong Agreement","Neither Agreement nor Disagreement"
"133","A303FIW2QB4TYO:3EFE17QCRDBMQJBV69QNO45IY6IHSS","2",9,1,1,"5","<p style=""font-size:100px""><b>G</b></p><p style=""position: absolute; top: 30px; right: 30px; text-align:right; font-size:50px"""">N = 1</p>","G",0,69,434,0,"agree",14,16,13,16,18,"30","male","yes.  instructions are clear.","Moderate Agreement","Slight Agreement","Slight Agreement","Neither Agreement nor Disagreement","Very Strong Agreement","Moderate Agreement","Slight Agreement","Neither Agreement nor Disagreement","Moderate Agreement","Strong Agreement","Slight Agreement","Slight Disagreement","Moderate Agreement","Neither Agreement nor Disagreement","Moderate Agreement","Strong Agreement","Very Strong Agreement","Neither Agreement nor Disagreement"
"134","A303FIW2QB4TYO:3EFE17QCRDBMQJBV69QNO45IY6IHSS","2",9,2,1,"5","<p style=""font-size:100px""><b>G</b></p><p style=""position: absolute; top: 30px; right: 30px; text-align:right; font-size:50px"""">N = 1</p>","G",0,69,92,0,"agree",14,16,13,16,18,"30","male","yes.  instructions are clear.","Moderate Agreement","Slight Agreement","Slight Agreement","Neither Agreement nor Disagreement","Very Strong Agreement","Moderate Agreement","Slight Agreement","Neither Agreement nor Disagreement","Moderate Agreement","Strong Agreement","Slight Agreement","Slight Disagreement","Moderate Agreement","Neither Agreement nor Disagreement","Moderate Agreement","Strong Agreement","Very Strong Agreement","Neither Agreement nor Disagreement"
"135","A303FIW2QB4TYO:3EFE17QCRDBMQJBV69QNO45IY6IHSS","2",9,3,1,"5","<p style=""font-size:100px""><b>t</b></p><p style=""position: absolute; top: 30px; right: 30px; text-align:right; font-size:50px"""">N = 1</p>","t",0,69,65,0,"agree",14,16,13,16,18,"30","male","yes.  instructions are clear.","Moderate Agreement","Slight Agreement","Slight Agreement","Neither Agreement nor Disagreement","Very Strong Agreement","Moderate Agreement","Slight Agreement","Neither Agreement nor Disagreement","Moderate Agreement","Strong Agreement","Slight Agreement","Slight Disagreement","Moderate Agreement","Neither Agreement nor Disagreement","Moderate Agreement","Strong Agreement","Very Strong Agreement","Neither Agreement nor Disagreement"
