"","subject","run","block","trial","N","reward","stimulus","cue","isTarget","key_press","rt","acc","debrief","performance","frustration","demand","temporal","effort","age","gender","comments","nfc1","nfc2","nfc3","nfc4","nfc5","nfc6","nfc7","nfc8","nfc9","nfc10","nfc11","nfc12","nfc13","nfc14","nfc15","nfc16","nfc17","nfc18"
"1","AI0TZEH5DNODH:36ZN444YTS47OMUM5ARZ4BWW1PNOIE","practice",1,1,1,"NA","<p style=""font-size:100px""><b>V</b></p><p style=""position: absolute; top: 30px; right: 30px; text-align:right; font-size:50px"""">N = 1</p>","V",0,69,4434.20000004768,0,"agree",14,14,16,11,16,"25","male","","Very Strong Agreement","Slight Agreement","Very Strong Agreement","Very Strong Agreement","Very Strong Agreement","Very Strong Agreement","Very Strong Agreement","Very Strong Agreement","Very Strong Agreement","Very Strong Agreement","Very Strong Agreement","Very Strong Agreement","Very Strong Agreement","Very Strong Agreement","Very Strong Agreement","Very Strong Agreement","Very Strong Agreement","Very Strong Agreement"
"2","AI0TZEH5DNODH:36ZN444YTS47OMUM5ARZ4BWW1PNOIE","practice",1,2,1,"NA","<p style=""font-size:100px""><b>d</b></p><p style=""position: absolute; top: 30px; right: 30px; text-align:right; font-size:50px"""">N = 1</p>","d",0,69,3098.70000004768,0,"agree",14,14,16,11,16,"25","male","","Very Strong Agreement","Slight Agreement","Very Strong Agreement","Very Strong Agreement","Very Strong Agreement","Very Strong Agreement","Very Strong Agreement","Very Strong Agreement","Very Strong Agreement","Very Strong Agreement","Very Strong Agreement","Very Strong Agreement","Very Strong Agreement","Very Strong Agreement","Very Strong Agreement","Very Strong Agreement","Very Strong Agreement","Very Strong Agreement"
"3","AI0TZEH5DNODH:36ZN444YTS47OMUM5ARZ4BWW1PNOIE","practice",1,3,1,"NA","<p style=""font-size:100px""><b>g</b></p><p style=""position: absolute; top: 30px; right: 30px; text-align:right; font-size:50px"""">N = 1</p>","g",0,69,7029.89999997616,0,"agree",14,14,16,11,16,"25","male","","Very Strong Agreement","Slight Agreement","Very Strong Agreement","Very Strong Agreement","Very Strong Agreement","Very Strong Agreement","Very Strong Agreement","Very Strong Agreement","Very Strong Agreement","Very Strong Agreement","Very Strong Agreement","Very Strong Agreement","Very Strong Agreement","Very Strong Agreement","Very Strong Agreement","Very Strong Agreement","Very Strong Agreement","Very Strong Agreement"
"4","AI0TZEH5DNODH:36ZN444YTS47OMUM5ARZ4BWW1PNOIE","practice",1,4,1,"NA","<p style=""font-size:100px""><b>g</b></p><p style=""position: absolute; top: 30px; right: 30px; text-align:right; font-size:50px"""">N = 1</p>","g",1,69,2083.29999995232,1,"agree",14,14,16,11,16,"25","male","","Very Strong Agreement","Slight Agreement","Very Strong Agreement","Very Strong Agreement","Very Strong Agreement","Very Strong Agreement","Very Strong Agreement","Very Strong Agreement","Very Strong Agreement","Very Strong Agreement","Very Strong Agreement","Very Strong Agreement","Very Strong Agreement","Very Strong Agreement","Very Strong Agreement","Very Strong Agreement","Very Strong Agreement","Very Strong Agreement"
"5","AI0TZEH5DNODH:36ZN444YTS47OMUM5ARZ4BWW1PNOIE","practice",1,5,1,"NA","<p style=""font-size:100px""><b>d</b></p><p style=""position: absolute; top: 30px; right: 30px; text-align:right; font-size:50px"""">N = 1</p>","d",0,73,2815.40000009537,1,"agree",14,14,16,11,16,"25","male","","Very Strong Agreement","Slight Agreement","Very Strong Agreement","Very Strong Agreement","Very Strong Agreement","Very Strong Agreement","Very Strong Agreement","Very Strong Agreement","Very Strong Agreement","Very Strong Agreement","Very Strong Agreement","Very Strong Agreement","Very Strong Agreement","Very Strong Agreement","Very Strong Agreement","Very Strong Agreement","Very Strong Agreement","Very Strong Agreement"
"6","AI0TZEH5DNODH:36ZN444YTS47OMUM5ARZ4BWW1PNOIE","practice",1,6,1,"NA","<p style=""font-size:100px""><b>d</b></p><p style=""position: absolute; top: 30px; right: 30px; text-align:right; font-size:50px"""">N = 1</p>","d",1,73,920.200000047684,0,"agree",14,14,16,11,16,"25","male","","Very Strong Agreement","Slight Agreement","Very Strong Agreement","Very Strong Agreement","Very Strong Agreement","Very Strong Agreement","Very Strong Agreement","Very Strong Agreement","Very Strong Agreement","Very Strong Agreement","Very Strong Agreement","Very Strong Agreement","Very Strong Agreement","Very Strong Agreement","Very Strong Agreement","Very Strong Agreement","Very Strong Agreement","Very Strong Agreement"
"7","AI0TZEH5DNODH:36ZN444YTS47OMUM5ARZ4BWW1PNOIE","practice",1,7,1,"NA","<p style=""font-size:100px""><b>d</b></p><p style=""position: absolute; top: 30px; right: 30px; text-align:right; font-size:50px"""">N = 1</p>","d",1,73,102.199999928474,0,"agree",14,14,16,11,16,"25","male","","Very Strong Agreement","Slight Agreement","Very Strong Agreement","Very Strong Agreement","Very Strong Agreement","Very Strong Agreement","Very Strong Agreement","Very Strong Agreement","Very Strong Agreement","Very Strong Agreement","Very Strong Agreement","Very Strong Agreement","Very Strong Agreement","Very Strong Agreement","Very Strong Agreement","Very Strong Agreement","Very Strong Agreement","Very Strong Agreement"
"8","AI0TZEH5DNODH:36ZN444YTS47OMUM5ARZ4BWW1PNOIE","practice",1,8,1,"NA","<p style=""font-size:100px""><b>T</b></p><p style=""position: absolute; top: 30px; right: 30px; text-align:right; font-size:50px"""">N = 1</p>","T",0,69,1158.30000007153,0,"agree",14,14,16,11,16,"25","male","","Very Strong Agreement","Slight Agreement","Very Strong Agreement","Very Strong Agreement","Very Strong Agreement","Very Strong Agreement","Very Strong Agreement","Very Strong Agreement","Very Strong Agreement","Very Strong Agreement","Very Strong Agreement","Very Strong Agreement","Very Strong Agreement","Very Strong Agreement","Very Strong Agreement","Very Strong Agreement","Very Strong Agreement","Very Strong Agreement"
"9","AI0TZEH5DNODH:36ZN444YTS47OMUM5ARZ4BWW1PNOIE","practice",1,9,1,"NA","<p style=""font-size:100px""><b>p</b></p><p style=""position: absolute; top: 30px; right: 30px; text-align:right; font-size:50px"""">N = 1</p>","p",0,73,1216.70000004768,1,"agree",14,14,16,11,16,"25","male","","Very Strong Agreement","Slight Agreement","Very Strong Agreement","Very Strong Agreement","Very Strong Agreement","Very Strong Agreement","Very Strong Agreement","Very Strong Agreement","Very Strong Agreement","Very Strong Agreement","Very Strong Agreement","Very Strong Agreement","Very Strong Agreement","Very Strong Agreement","Very Strong Agreement","Very Strong Agreement","Very Strong Agreement","Very Strong Agreement"
"10","AI0TZEH5DNODH:36ZN444YTS47OMUM5ARZ4BWW1PNOIE","practice",1,10,1,"NA","<p style=""font-size:100px""><b>p</b></p><p style=""position: absolute; top: 30px; right: 30px; text-align:right; font-size:50px"""">N = 1</p>","p",1,73,2914.29999995232,0,"agree",14,14,16,11,16,"25","male","","Very Strong Agreement","Slight Agreement","Very Strong Agreement","Very Strong Agreement","Very Strong Agreement","Very Strong Agreement","Very Strong Agreement","Very Strong Agreement","Very Strong Agreement","Very Strong Agreement","Very Strong Agreement","Very Strong Agreement","Very Strong Agreement","Very Strong Agreement","Very Strong Agreement","Very Strong Agreement","Very Strong Agreement","Very Strong Agreement"
"11","AI0TZEH5DNODH:36ZN444YTS47OMUM5ARZ4BWW1PNOIE","practice",1,11,1,"NA","<p style=""font-size:100px""><b>B</b></p><p style=""position: absolute; top: 30px; right: 30px; text-align:right; font-size:50px"""">N = 1</p>","B",0,69,1168.29999995232,0,"agree",14,14,16,11,16,"25","male","","Very Strong Agreement","Slight Agreement","Very Strong Agreement","Very Strong Agreement","Very Strong Agreement","Very Strong Agreement","Very Strong Agreement","Very Strong Agreement","Very Strong Agreement","Very Strong Agreement","Very Strong Agreement","Very Strong Agreement","Very Strong Agreement","Very Strong Agreement","Very Strong Agreement","Very Strong Agreement","Very Strong Agreement","Very Strong Agreement"
"12","AI0TZEH5DNODH:36ZN444YTS47OMUM5ARZ4BWW1PNOIE","practice",1,12,1,"NA","<p style=""font-size:100px""><b>T</b></p><p style=""position: absolute; top: 30px; right: 30px; text-align:right; font-size:50px"""">N = 1</p>","T",0,73,1378.20000004768,1,"agree",14,14,16,11,16,"25","male","","Very Strong Agreement","Slight Agreement","Very Strong Agreement","Very Strong Agreement","Very Strong Agreement","Very Strong Agreement","Very Strong Agreement","Very Strong Agreement","Very Strong Agreement","Very Strong Agreement","Very Strong Agreement","Very Strong Agreement","Very Strong Agreement","Very Strong Agreement","Very Strong Agreement","Very Strong Agreement","Very Strong Agreement","Very Strong Agreement"
"13","AI0TZEH5DNODH:36ZN444YTS47OMUM5ARZ4BWW1PNOIE","practice",2,1,2,"NA","<p style=""font-size:100px""><b>p</b></p><p style=""position: absolute; top: 30px; right: 30px; text-align:right; font-size:50px"""">N = 2</p>","p",0,69,836.700000047684,0,"agree",14,14,16,11,16,"25","male","","Very Strong Agreement","Slight Agreement","Very Strong Agreement","Very Strong Agreement","Very Strong Agreement","Very Strong Agreement","Very Strong Agreement","Very Strong Agreement","Very Strong Agreement","Very Strong Agreement","Very Strong Agreement","Very Strong Agreement","Very Strong Agreement","Very Strong Agreement","Very Strong Agreement","Very Strong Agreement","Very Strong Agreement","Very Strong Agreement"
"14","AI0TZEH5DNODH:36ZN444YTS47OMUM5ARZ4BWW1PNOIE","practice",2,2,2,"NA","<p style=""font-size:100px""><b>d</b></p><p style=""position: absolute; top: 30px; right: 30px; text-align:right; font-size:50px"""">N = 2</p>","d",0,73,887.399999976158,1,"agree",14,14,16,11,16,"25","male","","Very Strong Agreement","Slight Agreement","Very Strong Agreement","Very Strong Agreement","Very Strong Agreement","Very Strong Agreement","Very Strong Agreement","Very Strong Agreement","Very Strong Agreement","Very Strong Agreement","Very Strong Agreement","Very Strong Agreement","Very Strong Agreement","Very Strong Agreement","Very Strong Agreement","Very Strong Agreement","Very Strong Agreement","Very Strong Agreement"
"15","AI0TZEH5DNODH:36ZN444YTS47OMUM5ARZ4BWW1PNOIE","practice",2,3,2,"NA","<p style=""font-size:100px""><b>p</b></p><p style=""position: absolute; top: 30px; right: 30px; text-align:right; font-size:50px"""">N = 2</p>","p",1,69,150.899999976158,1,"agree",14,14,16,11,16,"25","male","","Very Strong Agreement","Slight Agreement","Very Strong Agreement","Very Strong Agreement","Very Strong Agreement","Very Strong Agreement","Very Strong Agreement","Very Strong Agreement","Very Strong Agreement","Very Strong Agreement","Very Strong Agreement","Very Strong Agreement","Very Strong Agreement","Very Strong Agreement","Very Strong Agreement","Very Strong Agreement","Very Strong Agreement","Very Strong Agreement"
"16","AI0TZEH5DNODH:36ZN444YTS47OMUM5ARZ4BWW1PNOIE","practice",2,4,2,"NA","<p style=""font-size:100px""><b>P</b></p><p style=""position: absolute; top: 30px; right: 30px; text-align:right; font-size:50px"""">N = 2</p>","P",0,73,802.299999952316,1,"agree",14,14,16,11,16,"25","male","","Very Strong Agreement","Slight Agreement","Very Strong Agreement","Very Strong Agreement","Very Strong Agreement","Very Strong Agreement","Very Strong Agreement","Very Strong Agreement","Very Strong Agreement","Very Strong Agreement","Very Strong Agreement","Very Strong Agreement","Very Strong Agreement","Very Strong Agreement","Very Strong Agreement","Very Strong Agreement","Very Strong Agreement","Very Strong Agreement"
"17","AI0TZEH5DNODH:36ZN444YTS47OMUM5ARZ4BWW1PNOIE","practice",2,5,2,"NA","<p style=""font-size:100px""><b>t</b></p><p style=""position: absolute; top: 30px; right: 30px; text-align:right; font-size:50px"""">N = 2</p>","t",0,69,688.399999976158,0,"agree",14,14,16,11,16,"25","male","","Very Strong Agreement","Slight Agreement","Very Strong Agreement","Very Strong Agreement","Very Strong Agreement","Very Strong Agreement","Very Strong Agreement","Very Strong Agreement","Very Strong Agreement","Very Strong Agreement","Very Strong Agreement","Very Strong Agreement","Very Strong Agreement","Very Strong Agreement","Very Strong Agreement","Very Strong Agreement","Very Strong Agreement","Very Strong Agreement"
"18","AI0TZEH5DNODH:36ZN444YTS47OMUM5ARZ4BWW1PNOIE","practice",2,6,2,"NA","<p style=""font-size:100px""><b>d</b></p><p style=""position: absolute; top: 30px; right: 30px; text-align:right; font-size:50px"""">N = 2</p>","d",0,73,861.199999928474,1,"agree",14,14,16,11,16,"25","male","","Very Strong Agreement","Slight Agreement","Very Strong Agreement","Very Strong Agreement","Very Strong Agreement","Very Strong Agreement","Very Strong Agreement","Very Strong Agreement","Very Strong Agreement","Very Strong Agreement","Very Strong Agreement","Very Strong Agreement","Very Strong Agreement","Very Strong Agreement","Very Strong Agreement","Very Strong Agreement","Very Strong Agreement","Very Strong Agreement"
"19","AI0TZEH5DNODH:36ZN444YTS47OMUM5ARZ4BWW1PNOIE","practice",2,7,2,"NA","<p style=""font-size:100px""><b>G</b></p><p style=""position: absolute; top: 30px; right: 30px; text-align:right; font-size:50px"""">N = 2</p>","G",0,73,787.700000047684,1,"agree",14,14,16,11,16,"25","male","","Very Strong Agreement","Slight Agreement","Very Strong Agreement","Very Strong Agreement","Very Strong Agreement","Very Strong Agreement","Very Strong Agreement","Very Strong Agreement","Very Strong Agreement","Very Strong Agreement","Very Strong Agreement","Very Strong Agreement","Very Strong Agreement","Very Strong Agreement","Very Strong Agreement","Very Strong Agreement","Very Strong Agreement","Very Strong Agreement"
"20","AI0TZEH5DNODH:36ZN444YTS47OMUM5ARZ4BWW1PNOIE","practice",2,8,2,"NA","<p style=""font-size:100px""><b>d</b></p><p style=""position: absolute; top: 30px; right: 30px; text-align:right; font-size:50px"""">N = 2</p>","d",1,69,831.299999952316,1,"agree",14,14,16,11,16,"25","male","","Very Strong Agreement","Slight Agreement","Very Strong Agreement","Very Strong Agreement","Very Strong Agreement","Very Strong Agreement","Very Strong Agreement","Very Strong Agreement","Very Strong Agreement","Very Strong Agreement","Very Strong Agreement","Very Strong Agreement","Very Strong Agreement","Very Strong Agreement","Very Strong Agreement","Very Strong Agreement","Very Strong Agreement","Very Strong Agreement"
"21","AI0TZEH5DNODH:36ZN444YTS47OMUM5ARZ4BWW1PNOIE","practice",2,9,2,"NA","<p style=""font-size:100px""><b>G</b></p><p style=""position: absolute; top: 30px; right: 30px; text-align:right; font-size:50px"""">N = 2</p>","G",1,73,796.399999976158,0,"agree",14,14,16,11,16,"25","male","","Very Strong Agreement","Slight Agreement","Very Strong Agreement","Very Strong Agreement","Very Strong Agreement","Very Strong Agreement","Very Strong Agreement","Very Strong Agreement","Very Strong Agreement","Very Strong Agreement","Very Strong Agreement","Very Strong Agreement","Very Strong Agreement","Very Strong Agreement","Very Strong Agreement","Very Strong Agreement","Very Strong Agreement","Very Strong Agreement"
"22","AI0TZEH5DNODH:36ZN444YTS47OMUM5ARZ4BWW1PNOIE","practice",2,10,2,"NA","<p style=""font-size:100px""><b>d</b></p><p style=""position: absolute; top: 30px; right: 30px; text-align:right; font-size:50px"""">N = 2</p>","d",1,73,1218.30000007153,0,"agree",14,14,16,11,16,"25","male","","Very Strong Agreement","Slight Agreement","Very Strong Agreement","Very Strong Agreement","Very Strong Agreement","Very Strong Agreement","Very Strong Agreement","Very Strong Agreement","Very Strong Agreement","Very Strong Agreement","Very Strong Agreement","Very Strong Agreement","Very Strong Agreement","Very Strong Agreement","Very Strong Agreement","Very Strong Agreement","Very Strong Agreement","Very Strong Agreement"
"23","AI0TZEH5DNODH:36ZN444YTS47OMUM5ARZ4BWW1PNOIE","practice",2,11,2,"NA","<p style=""font-size:100px""><b>D</b></p><p style=""position: absolute; top: 30px; right: 30px; text-align:right; font-size:50px"""">N = 2</p>","D",0,69,1198.5,0,"agree",14,14,16,11,16,"25","male","","Very Strong Agreement","Slight Agreement","Very Strong Agreement","Very Strong Agreement","Very Strong Agreement","Very Strong Agreement","Very Strong Agreement","Very Strong Agreement","Very Strong Agreement","Very Strong Agreement","Very Strong Agreement","Very Strong Agreement","Very Strong Agreement","Very Strong Agreement","Very Strong Agreement","Very Strong Agreement","Very Strong Agreement","Very Strong Agreement"
"24","AI0TZEH5DNODH:36ZN444YTS47OMUM5ARZ4BWW1PNOIE","practice",2,12,2,"NA","<p style=""font-size:100px""><b>B</b></p><p style=""position: absolute; top: 30px; right: 30px; text-align:right; font-size:50px"""">N = 2</p>","B",0,73,1273.30000007153,1,"agree",14,14,16,11,16,"25","male","","Very Strong Agreement","Slight Agreement","Very Strong Agreement","Very Strong Agreement","Very Strong Agreement","Very Strong Agreement","Very Strong Agreement","Very Strong Agreement","Very Strong Agreement","Very Strong Agreement","Very Strong Agreement","Very Strong Agreement","Very Strong Agreement","Very Strong Agreement","Very Strong Agreement","Very Strong Agreement","Very Strong Agreement","Very Strong Agreement"
"25","AI0TZEH5DNODH:36ZN444YTS47OMUM5ARZ4BWW1PNOIE","practice",3,1,3,"NA","<p style=""font-size:100px""><b>G</b></p><p style=""position: absolute; top: 30px; right: 30px; text-align:right; font-size:50px"""">N = 3</p>","G",0,73,341,1,"agree",14,14,16,11,16,"25","male","","Very Strong Agreement","Slight Agreement","Very Strong Agreement","Very Strong Agreement","Very Strong Agreement","Very Strong Agreement","Very Strong Agreement","Very Strong Agreement","Very Strong Agreement","Very Strong Agreement","Very Strong Agreement","Very Strong Agreement","Very Strong Agreement","Very Strong Agreement","Very Strong Agreement","Very Strong Agreement","Very Strong Agreement","Very Strong Agreement"
"26","AI0TZEH5DNODH:36ZN444YTS47OMUM5ARZ4BWW1PNOIE","practice",3,2,3,"NA","<p style=""font-size:100px""><b>P</b></p><p style=""position: absolute; top: 30px; right: 30px; text-align:right; font-size:50px"""">N = 3</p>","P",0,69,931.100000023842,0,"agree",14,14,16,11,16,"25","male","","Very Strong Agreement","Slight Agreement","Very Strong Agreement","Very Strong Agreement","Very Strong Agreement","Very Strong Agreement","Very Strong Agreement","Very Strong Agreement","Very Strong Agreement","Very Strong Agreement","Very Strong Agreement","Very Strong Agreement","Very Strong Agreement","Very Strong Agreement","Very Strong Agreement","Very Strong Agreement","Very Strong Agreement","Very Strong Agreement"
"27","AI0TZEH5DNODH:36ZN444YTS47OMUM5ARZ4BWW1PNOIE","practice",3,3,3,"NA","<p style=""font-size:100px""><b>t</b></p><p style=""position: absolute; top: 30px; right: 30px; text-align:right; font-size:50px"""">N = 3</p>","t",0,73,629.200000047684,1,"agree",14,14,16,11,16,"25","male","","Very Strong Agreement","Slight Agreement","Very Strong Agreement","Very Strong Agreement","Very Strong Agreement","Very Strong Agreement","Very Strong Agreement","Very Strong Agreement","Very Strong Agreement","Very Strong Agreement","Very Strong Agreement","Very Strong Agreement","Very Strong Agreement","Very Strong Agreement","Very Strong Agreement","Very Strong Agreement","Very Strong Agreement","Very Strong Agreement"
"28","AI0TZEH5DNODH:36ZN444YTS47OMUM5ARZ4BWW1PNOIE","practice",3,4,3,"NA","<p style=""font-size:100px""><b>G</b></p><p style=""position: absolute; top: 30px; right: 30px; text-align:right; font-size:50px"""">N = 3</p>","G",1,73,222.399999976158,0,"agree",14,14,16,11,16,"25","male","","Very Strong Agreement","Slight Agreement","Very Strong Agreement","Very Strong Agreement","Very Strong Agreement","Very Strong Agreement","Very Strong Agreement","Very Strong Agreement","Very Strong Agreement","Very Strong Agreement","Very Strong Agreement","Very Strong Agreement","Very Strong Agreement","Very Strong Agreement","Very Strong Agreement","Very Strong Agreement","Very Strong Agreement","Very Strong Agreement"
"29","AI0TZEH5DNODH:36ZN444YTS47OMUM5ARZ4BWW1PNOIE","practice",3,5,3,"NA","<p style=""font-size:100px""><b>P</b></p><p style=""position: absolute; top: 30px; right: 30px; text-align:right; font-size:50px"""">N = 3</p>","P",1,73,132.199999928474,0,"agree",14,14,16,11,16,"25","male","","Very Strong Agreement","Slight Agreement","Very Strong Agreement","Very Strong Agreement","Very Strong Agreement","Very Strong Agreement","Very Strong Agreement","Very Strong Agreement","Very Strong Agreement","Very Strong Agreement","Very Strong Agreement","Very Strong Agreement","Very Strong Agreement","Very Strong Agreement","Very Strong Agreement","Very Strong Agreement","Very Strong Agreement","Very Strong Agreement"
"30","AI0TZEH5DNODH:36ZN444YTS47OMUM5ARZ4BWW1PNOIE","practice",3,6,3,"NA","<p style=""font-size:100px""><b>P</b></p><p style=""position: absolute; top: 30px; right: 30px; text-align:right; font-size:50px"""">N = 3</p>","P",0,69,34.3999999761581,0,"agree",14,14,16,11,16,"25","male","","Very Strong Agreement","Slight Agreement","Very Strong Agreement","Very Strong Agreement","Very Strong Agreement","Very Strong Agreement","Very Strong Agreement","Very Strong Agreement","Very Strong Agreement","Very Strong Agreement","Very Strong Agreement","Very Strong Agreement","Very Strong Agreement","Very Strong Agreement","Very Strong Agreement","Very Strong Agreement","Very Strong Agreement","Very Strong Agreement"
"31","AI0TZEH5DNODH:36ZN444YTS47OMUM5ARZ4BWW1PNOIE","practice",3,7,3,"NA","<p style=""font-size:100px""><b>G</b></p><p style=""position: absolute; top: 30px; right: 30px; text-align:right; font-size:50px"""">N = 3</p>","G",1,73,79.2000000476837,0,"agree",14,14,16,11,16,"25","male","","Very Strong Agreement","Slight Agreement","Very Strong Agreement","Very Strong Agreement","Very Strong Agreement","Very Strong Agreement","Very Strong Agreement","Very Strong Agreement","Very Strong Agreement","Very Strong Agreement","Very Strong Agreement","Very Strong Agreement","Very Strong Agreement","Very Strong Agreement","Very Strong Agreement","Very Strong Agreement","Very Strong Agreement","Very Strong Agreement"
"32","AI0TZEH5DNODH:36ZN444YTS47OMUM5ARZ4BWW1PNOIE","practice",3,8,3,"NA","<p style=""font-size:100px""><b>P</b></p><p style=""position: absolute; top: 30px; right: 30px; text-align:right; font-size:50px"""">N = 3</p>","P",1,69,159.200000047684,1,"agree",14,14,16,11,16,"25","male","","Very Strong Agreement","Slight Agreement","Very Strong Agreement","Very Strong Agreement","Very Strong Agreement","Very Strong Agreement","Very Strong Agreement","Very Strong Agreement","Very Strong Agreement","Very Strong Agreement","Very Strong Agreement","Very Strong Agreement","Very Strong Agreement","Very Strong Agreement","Very Strong Agreement","Very Strong Agreement","Very Strong Agreement","Very Strong Agreement"
"33","AI0TZEH5DNODH:36ZN444YTS47OMUM5ARZ4BWW1PNOIE","practice",3,9,3,"NA","<p style=""font-size:100px""><b>B</b></p><p style=""position: absolute; top: 30px; right: 30px; text-align:right; font-size:50px"""">N = 3</p>","B",0,69,98.1000000238419,0,"agree",14,14,16,11,16,"25","male","","Very Strong Agreement","Slight Agreement","Very Strong Agreement","Very Strong Agreement","Very Strong Agreement","Very Strong Agreement","Very Strong Agreement","Very Strong Agreement","Very Strong Agreement","Very Strong Agreement","Very Strong Agreement","Very Strong Agreement","Very Strong Agreement","Very Strong Agreement","Very Strong Agreement","Very Strong Agreement","Very Strong Agreement","Very Strong Agreement"
"34","AI0TZEH5DNODH:36ZN444YTS47OMUM5ARZ4BWW1PNOIE","practice",3,10,3,"NA","<p style=""font-size:100px""><b>p</b></p><p style=""position: absolute; top: 30px; right: 30px; text-align:right; font-size:50px"""">N = 3</p>","p",0,69,109.300000071526,0,"agree",14,14,16,11,16,"25","male","","Very Strong Agreement","Slight Agreement","Very Strong Agreement","Very Strong Agreement","Very Strong Agreement","Very Strong Agreement","Very Strong Agreement","Very Strong Agreement","Very Strong Agreement","Very Strong Agreement","Very Strong Agreement","Very Strong Agreement","Very Strong Agreement","Very Strong Agreement","Very Strong Agreement","Very Strong Agreement","Very Strong Agreement","Very Strong Agreement"
"35","AI0TZEH5DNODH:36ZN444YTS47OMUM5ARZ4BWW1PNOIE","practice",3,11,3,"NA","<p style=""font-size:100px""><b>d</b></p><p style=""position: absolute; top: 30px; right: 30px; text-align:right; font-size:50px"""">N = 3</p>","d",0,73,52.5999999046326,1,"agree",14,14,16,11,16,"25","male","","Very Strong Agreement","Slight Agreement","Very Strong Agreement","Very Strong Agreement","Very Strong Agreement","Very Strong Agreement","Very Strong Agreement","Very Strong Agreement","Very Strong Agreement","Very Strong Agreement","Very Strong Agreement","Very Strong Agreement","Very Strong Agreement","Very Strong Agreement","Very Strong Agreement","Very Strong Agreement","Very Strong Agreement","Very Strong Agreement"
"36","AI0TZEH5DNODH:36ZN444YTS47OMUM5ARZ4BWW1PNOIE","practice",3,12,3,"NA","<p style=""font-size:100px""><b>G</b></p><p style=""position: absolute; top: 30px; right: 30px; text-align:right; font-size:50px"""">N = 3</p>","G",0,69,95.1000000238419,0,"agree",14,14,16,11,16,"25","male","","Very Strong Agreement","Slight Agreement","Very Strong Agreement","Very Strong Agreement","Very Strong Agreement","Very Strong Agreement","Very Strong Agreement","Very Strong Agreement","Very Strong Agreement","Very Strong Agreement","Very Strong Agreement","Very Strong Agreement","Very Strong Agreement","Very Strong Agreement","Very Strong Agreement","Very Strong Agreement","Very Strong Agreement","Very Strong Agreement"
"37","AI0TZEH5DNODH:36ZN444YTS47OMUM5ARZ4BWW1PNOIE","1",1,1,2,"5","<p style=""font-size:100px""><b>v</b></p><p style=""position: absolute; top: 30px; right: 30px; text-align:right; font-size:50px"""">N = 2</p>","v",0,NA,NA,0,"agree",14,14,16,11,16,"25","male","","Very Strong Agreement","Slight Agreement","Very Strong Agreement","Very Strong Agreement","Very Strong Agreement","Very Strong Agreement","Very Strong Agreement","Very Strong Agreement","Very Strong Agreement","Very Strong Agreement","Very Strong Agreement","Very Strong Agreement","Very Strong Agreement","Very Strong Agreement","Very Strong Agreement","Very Strong Agreement","Very Strong Agreement","Very Strong Agreement"
"38","AI0TZEH5DNODH:36ZN444YTS47OMUM5ARZ4BWW1PNOIE","1",1,2,2,"5","<p style=""font-size:100px""><b>G</b></p><p style=""position: absolute; top: 30px; right: 30px; text-align:right; font-size:50px"""">N = 2</p>","G",0,73,876.600000023842,1,"agree",14,14,16,11,16,"25","male","","Very Strong Agreement","Slight Agreement","Very Strong Agreement","Very Strong Agreement","Very Strong Agreement","Very Strong Agreement","Very Strong Agreement","Very Strong Agreement","Very Strong Agreement","Very Strong Agreement","Very Strong Agreement","Very Strong Agreement","Very Strong Agreement","Very Strong Agreement","Very Strong Agreement","Very Strong Agreement","Very Strong Agreement","Very Strong Agreement"
"39","AI0TZEH5DNODH:36ZN444YTS47OMUM5ARZ4BWW1PNOIE","1",1,3,2,"5","<p style=""font-size:100px""><b>P</b></p><p style=""position: absolute; top: 30px; right: 30px; text-align:right; font-size:50px"""">N = 2</p>","P",0,69,221,0,"agree",14,14,16,11,16,"25","male","","Very Strong Agreement","Slight Agreement","Very Strong Agreement","Very Strong Agreement","Very Strong Agreement","Very Strong Agreement","Very Strong Agreement","Very Strong Agreement","Very Strong Agreement","Very Strong Agreement","Very Strong Agreement","Very Strong Agreement","Very Strong Agreement","Very Strong Agreement","Very Strong Agreement","Very Strong Agreement","Very Strong Agreement","Very Strong Agreement"
"40","AI0TZEH5DNODH:36ZN444YTS47OMUM5ARZ4BWW1PNOIE","1",1,4,2,"5","<p style=""font-size:100px""><b>P</b></p><p style=""position: absolute; top: 30px; right: 30px; text-align:right; font-size:50px"""">N = 2</p>","P",0,69,40.3999999761581,0,"agree",14,14,16,11,16,"25","male","","Very Strong Agreement","Slight Agreement","Very Strong Agreement","Very Strong Agreement","Very Strong Agreement","Very Strong Agreement","Very Strong Agreement","Very Strong Agreement","Very Strong Agreement","Very Strong Agreement","Very Strong Agreement","Very Strong Agreement","Very Strong Agreement","Very Strong Agreement","Very Strong Agreement","Very Strong Agreement","Very Strong Agreement","Very Strong Agreement"
"41","AI0TZEH5DNODH:36ZN444YTS47OMUM5ARZ4BWW1PNOIE","1",1,5,2,"5","<p style=""font-size:100px""><b>P</b></p><p style=""position: absolute; top: 30px; right: 30px; text-align:right; font-size:50px"""">N = 2</p>","P",0,73,38.7000000476837,1,"agree",14,14,16,11,16,"25","male","","Very Strong Agreement","Slight Agreement","Very Strong Agreement","Very Strong Agreement","Very Strong Agreement","Very Strong Agreement","Very Strong Agreement","Very Strong Agreement","Very Strong Agreement","Very Strong Agreement","Very Strong Agreement","Very Strong Agreement","Very Strong Agreement","Very Strong Agreement","Very Strong Agreement","Very Strong Agreement","Very Strong Agreement","Very Strong Agreement"
"42","AI0TZEH5DNODH:36ZN444YTS47OMUM5ARZ4BWW1PNOIE","1",1,6,2,"5","<p style=""font-size:100px""><b>P</b></p><p style=""position: absolute; top: 30px; right: 30px; text-align:right; font-size:50px"""">N = 2</p>","P",0,73,349.799999952316,1,"agree",14,14,16,11,16,"25","male","","Very Strong Agreement","Slight Agreement","Very Strong Agreement","Very Strong Agreement","Very Strong Agreement","Very Strong Agreement","Very Strong Agreement","Very Strong Agreement","Very Strong Agreement","Very Strong Agreement","Very Strong Agreement","Very Strong Agreement","Very Strong Agreement","Very Strong Agreement","Very Strong Agreement","Very Strong Agreement","Very Strong Agreement","Very Strong Agreement"
"43","AI0TZEH5DNODH:36ZN444YTS47OMUM5ARZ4BWW1PNOIE","1",1,7,2,"5","<p style=""font-size:100px""><b>v</b></p><p style=""position: absolute; top: 30px; right: 30px; text-align:right; font-size:50px"""">N = 2</p>","v",0,69,148.899999976158,0,"agree",14,14,16,11,16,"25","male","","Very Strong Agreement","Slight Agreement","Very Strong Agreement","Very Strong Agreement","Very Strong Agreement","Very Strong Agreement","Very Strong Agreement","Very Strong Agreement","Very Strong Agreement","Very Strong Agreement","Very Strong Agreement","Very Strong Agreement","Very Strong Agreement","Very Strong Agreement","Very Strong Agreement","Very Strong Agreement","Very Strong Agreement","Very Strong Agreement"
"44","AI0TZEH5DNODH:36ZN444YTS47OMUM5ARZ4BWW1PNOIE","1",1,8,2,"5","<p style=""font-size:100px""><b>D</b></p><p style=""position: absolute; top: 30px; right: 30px; text-align:right; font-size:50px"""">N = 2</p>","D",0,NA,NA,0,"agree",14,14,16,11,16,"25","male","","Very Strong Agreement","Slight Agreement","Very Strong Agreement","Very Strong Agreement","Very Strong Agreement","Very Strong Agreement","Very Strong Agreement","Very Strong Agreement","Very Strong Agreement","Very Strong Agreement","Very Strong Agreement","Very Strong Agreement","Very Strong Agreement","Very Strong Agreement","Very Strong Agreement","Very Strong Agreement","Very Strong Agreement","Very Strong Agreement"
"45","AI0TZEH5DNODH:36ZN444YTS47OMUM5ARZ4BWW1PNOIE","1",1,9,2,"5","<p style=""font-size:100px""><b>G</b></p><p style=""position: absolute; top: 30px; right: 30px; text-align:right; font-size:50px"""">N = 2</p>","G",0,73,975.299999952316,1,"agree",14,14,16,11,16,"25","male","","Very Strong Agreement","Slight Agreement","Very Strong Agreement","Very Strong Agreement","Very Strong Agreement","Very Strong Agreement","Very Strong Agreement","Very Strong Agreement","Very Strong Agreement","Very Strong Agreement","Very Strong Agreement","Very Strong Agreement","Very Strong Agreement","Very Strong Agreement","Very Strong Agreement","Very Strong Agreement","Very Strong Agreement","Very Strong Agreement"
"46","AI0TZEH5DNODH:36ZN444YTS47OMUM5ARZ4BWW1PNOIE","1",1,10,2,"5","<p style=""font-size:100px""><b>D</b></p><p style=""position: absolute; top: 30px; right: 30px; text-align:right; font-size:50px"""">N = 2</p>","D",0,69,157.399999976158,0,"agree",14,14,16,11,16,"25","male","","Very Strong Agreement","Slight Agreement","Very Strong Agreement","Very Strong Agreement","Very Strong Agreement","Very Strong Agreement","Very Strong Agreement","Very Strong Agreement","Very Strong Agreement","Very Strong Agreement","Very Strong Agreement","Very Strong Agreement","Very Strong Agreement","Very Strong Agreement","Very Strong Agreement","Very Strong Agreement","Very Strong Agreement","Very Strong Agreement"
"47","AI0TZEH5DNODH:36ZN444YTS47OMUM5ARZ4BWW1PNOIE","1",1,11,2,"5","<p style=""font-size:100px""><b>G</b></p><p style=""position: absolute; top: 30px; right: 30px; text-align:right; font-size:50px"""">N = 2</p>","G",0,73,193,1,"agree",14,14,16,11,16,"25","male","","Very Strong Agreement","Slight Agreement","Very Strong Agreement","Very Strong Agreement","Very Strong Agreement","Very Strong Agreement","Very Strong Agreement","Very Strong Agreement","Very Strong Agreement","Very Strong Agreement","Very Strong Agreement","Very Strong Agreement","Very Strong Agreement","Very Strong Agreement","Very Strong Agreement","Very Strong Agreement","Very Strong Agreement","Very Strong Agreement"
"48","AI0TZEH5DNODH:36ZN444YTS47OMUM5ARZ4BWW1PNOIE","1",1,12,2,"5","<p style=""font-size:100px""><b>t</b></p><p style=""position: absolute; top: 30px; right: 30px; text-align:right; font-size:50px"""">N = 2</p>","t",0,69,192.299999952316,0,"agree",14,14,16,11,16,"25","male","","Very Strong Agreement","Slight Agreement","Very Strong Agreement","Very Strong Agreement","Very Strong Agreement","Very Strong Agreement","Very Strong Agreement","Very Strong Agreement","Very Strong Agreement","Very Strong Agreement","Very Strong Agreement","Very Strong Agreement","Very Strong Agreement","Very Strong Agreement","Very Strong Agreement","Very Strong Agreement","Very Strong Agreement","Very Strong Agreement"
"49","AI0TZEH5DNODH:36ZN444YTS47OMUM5ARZ4BWW1PNOIE","1",2,1,1,"50","<p style=""font-size:100px""><b>b</b></p><p style=""position: absolute; top: 30px; right: 30px; text-align:right; font-size:50px"""">N = 1</p>","b",0,NA,NA,0,"agree",15,17,14,16,18,"25","male","","Very Strong Agreement","Slight Agreement","Very Strong Agreement","Very Strong Agreement","Very Strong Agreement","Very Strong Agreement","Very Strong Agreement","Very Strong Agreement","Very Strong Agreement","Very Strong Agreement","Very Strong Agreement","Very Strong Agreement","Very Strong Agreement","Very Strong Agreement","Very Strong Agreement","Very Strong Agreement","Very Strong Agreement","Very Strong Agreement"
"50","AI0TZEH5DNODH:36ZN444YTS47OMUM5ARZ4BWW1PNOIE","1",2,2,1,"50","<p style=""font-size:100px""><b>p</b></p><p style=""position: absolute; top: 30px; right: 30px; text-align:right; font-size:50px"""">N = 1</p>","p",0,73,558.899999976158,1,"agree",15,17,14,16,18,"25","male","","Very Strong Agreement","Slight Agreement","Very Strong Agreement","Very Strong Agreement","Very Strong Agreement","Very Strong Agreement","Very Strong Agreement","Very Strong Agreement","Very Strong Agreement","Very Strong Agreement","Very Strong Agreement","Very Strong Agreement","Very Strong Agreement","Very Strong Agreement","Very Strong Agreement","Very Strong Agreement","Very Strong Agreement","Very Strong Agreement"
"51","AI0TZEH5DNODH:36ZN444YTS47OMUM5ARZ4BWW1PNOIE","1",2,3,1,"50","<p style=""font-size:100px""><b>B</b></p><p style=""position: absolute; top: 30px; right: 30px; text-align:right; font-size:50px"""">N = 1</p>","B",0,73,14.6999999284744,1,"agree",15,17,14,16,18,"25","male","","Very Strong Agreement","Slight Agreement","Very Strong Agreement","Very Strong Agreement","Very Strong Agreement","Very Strong Agreement","Very Strong Agreement","Very Strong Agreement","Very Strong Agreement","Very Strong Agreement","Very Strong Agreement","Very Strong Agreement","Very Strong Agreement","Very Strong Agreement","Very Strong Agreement","Very Strong Agreement","Very Strong Agreement","Very Strong Agreement"
"52","AI0TZEH5DNODH:36ZN444YTS47OMUM5ARZ4BWW1PNOIE","1",2,4,1,"50","<p style=""font-size:100px""><b>B</b></p><p style=""position: absolute; top: 30px; right: 30px; text-align:right; font-size:50px"""">N = 1</p>","B",0,73,259.900000095367,1,"agree",15,17,14,16,18,"25","male","","Very Strong Agreement","Slight Agreement","Very Strong Agreement","Very Strong Agreement","Very Strong Agreement","Very Strong Agreement","Very Strong Agreement","Very Strong Agreement","Very Strong Agreement","Very Strong Agreement","Very Strong Agreement","Very Strong Agreement","Very Strong Agreement","Very Strong Agreement","Very Strong Agreement","Very Strong Agreement","Very Strong Agreement","Very Strong Agreement"
"53","AI0TZEH5DNODH:36ZN444YTS47OMUM5ARZ4BWW1PNOIE","1",2,5,1,"50","<p style=""font-size:100px""><b>v</b></p><p style=""position: absolute; top: 30px; right: 30px; text-align:right; font-size:50px"""">N = 1</p>","v",0,73,330.600000023842,1,"agree",15,17,14,16,18,"25","male","","Very Strong Agreement","Slight Agreement","Very Strong Agreement","Very Strong Agreement","Very Strong Agreement","Very Strong Agreement","Very Strong Agreement","Very Strong Agreement","Very Strong Agreement","Very Strong Agreement","Very Strong Agreement","Very Strong Agreement","Very Strong Agreement","Very Strong Agreement","Very Strong Agreement","Very Strong Agreement","Very Strong Agreement","Very Strong Agreement"
"54","AI0TZEH5DNODH:36ZN444YTS47OMUM5ARZ4BWW1PNOIE","1",2,6,1,"50","<p style=""font-size:100px""><b>v</b></p><p style=""position: absolute; top: 30px; right: 30px; text-align:right; font-size:50px"""">N = 1</p>","v",0,69,18,0,"agree",15,17,14,16,18,"25","male","","Very Strong Agreement","Slight Agreement","Very Strong Agreement","Very Strong Agreement","Very Strong Agreement","Very Strong Agreement","Very Strong Agreement","Very Strong Agreement","Very Strong Agreement","Very Strong Agreement","Very Strong Agreement","Very Strong Agreement","Very Strong Agreement","Very Strong Agreement","Very Strong Agreement","Very Strong Agreement","Very Strong Agreement","Very Strong Agreement"
"55","AI0TZEH5DNODH:36ZN444YTS47OMUM5ARZ4BWW1PNOIE","1",2,7,1,"50","<p style=""font-size:100px""><b>p</b></p><p style=""position: absolute; top: 30px; right: 30px; text-align:right; font-size:50px"""">N = 1</p>","p",0,73,690,1,"agree",15,17,14,16,18,"25","male","","Very Strong Agreement","Slight Agreement","Very Strong Agreement","Very Strong Agreement","Very Strong Agreement","Very Strong Agreement","Very Strong Agreement","Very Strong Agreement","Very Strong Agreement","Very Strong Agreement","Very Strong Agreement","Very Strong Agreement","Very Strong Agreement","Very Strong Agreement","Very Strong Agreement","Very Strong Agreement","Very Strong Agreement","Very Strong Agreement"
"56","AI0TZEH5DNODH:36ZN444YTS47OMUM5ARZ4BWW1PNOIE","1",2,8,1,"50","<p style=""font-size:100px""><b>p</b></p><p style=""position: absolute; top: 30px; right: 30px; text-align:right; font-size:50px"""">N = 1</p>","p",0,73,234.600000023842,1,"agree",15,17,14,16,18,"25","male","","Very Strong Agreement","Slight Agreement","Very Strong Agreement","Very Strong Agreement","Very Strong Agreement","Very Strong Agreement","Very Strong Agreement","Very Strong Agreement","Very Strong Agreement","Very Strong Agreement","Very Strong Agreement","Very Strong Agreement","Very Strong Agreement","Very Strong Agreement","Very Strong Agreement","Very Strong Agreement","Very Strong Agreement","Very Strong Agreement"
"57","AI0TZEH5DNODH:36ZN444YTS47OMUM5ARZ4BWW1PNOIE","1",2,9,1,"50","<p style=""font-size:100px""><b>p</b></p><p style=""position: absolute; top: 30px; right: 30px; text-align:right; font-size:50px"""">N = 1</p>","p",0,69,30.3000000715256,0,"agree",15,17,14,16,18,"25","male","","Very Strong Agreement","Slight Agreement","Very Strong Agreement","Very Strong Agreement","Very Strong Agreement","Very Strong Agreement","Very Strong Agreement","Very Strong Agreement","Very Strong Agreement","Very Strong Agreement","Very Strong Agreement","Very Strong Agreement","Very Strong Agreement","Very Strong Agreement","Very Strong Agreement","Very Strong Agreement","Very Strong Agreement","Very Strong Agreement"
"58","AI0TZEH5DNODH:36ZN444YTS47OMUM5ARZ4BWW1PNOIE","1",2,10,1,"50","<p style=""font-size:100px""><b>b</b></p><p style=""position: absolute; top: 30px; right: 30px; text-align:right; font-size:50px"""">N = 1</p>","b",0,69,13.1000000238419,0,"agree",15,17,14,16,18,"25","male","","Very Strong Agreement","Slight Agreement","Very Strong Agreement","Very Strong Agreement","Very Strong Agreement","Very Strong Agreement","Very Strong Agreement","Very Strong Agreement","Very Strong Agreement","Very Strong Agreement","Very Strong Agreement","Very Strong Agreement","Very Strong Agreement","Very Strong Agreement","Very Strong Agreement","Very Strong Agreement","Very Strong Agreement","Very Strong Agreement"
"59","AI0TZEH5DNODH:36ZN444YTS47OMUM5ARZ4BWW1PNOIE","1",2,11,1,"50","<p style=""font-size:100px""><b>d</b></p><p style=""position: absolute; top: 30px; right: 30px; text-align:right; font-size:50px"""">N = 1</p>","d",0,73,8,1,"agree",15,17,14,16,18,"25","male","","Very Strong Agreement","Slight Agreement","Very Strong Agreement","Very Strong Agreement","Very Strong Agreement","Very Strong Agreement","Very Strong Agreement","Very Strong Agreement","Very Strong Agreement","Very Strong Agreement","Very Strong Agreement","Very Strong Agreement","Very Strong Agreement","Very Strong Agreement","Very Strong Agreement","Very Strong Agreement","Very Strong Agreement","Very Strong Agreement"
"60","AI0TZEH5DNODH:36ZN444YTS47OMUM5ARZ4BWW1PNOIE","1",2,12,1,"50","<p style=""font-size:100px""><b>t</b></p><p style=""position: absolute; top: 30px; right: 30px; text-align:right; font-size:50px"""">N = 1</p>","t",0,69,0.399999976158142,0,"agree",15,17,14,16,18,"25","male","","Very Strong Agreement","Slight Agreement","Very Strong Agreement","Very Strong Agreement","Very Strong Agreement","Very Strong Agreement","Very Strong Agreement","Very Strong Agreement","Very Strong Agreement","Very Strong Agreement","Very Strong Agreement","Very Strong Agreement","Very Strong Agreement","Very Strong Agreement","Very Strong Agreement","Very Strong Agreement","Very Strong Agreement","Very Strong Agreement"
"61","AI0TZEH5DNODH:36ZN444YTS47OMUM5ARZ4BWW1PNOIE","1",3,1,1,"5","<p style=""font-size:100px""><b>G</b></p><p style=""position: absolute; top: 30px; right: 30px; text-align:right; font-size:50px"""">N = 1</p>","G",0,73,894.100000023842,1,"agree",14,16,16,15,16,"25","male","","Very Strong Agreement","Slight Agreement","Very Strong Agreement","Very Strong Agreement","Very Strong Agreement","Very Strong Agreement","Very Strong Agreement","Very Strong Agreement","Very Strong Agreement","Very Strong Agreement","Very Strong Agreement","Very Strong Agreement","Very Strong Agreement","Very Strong Agreement","Very Strong Agreement","Very Strong Agreement","Very Strong Agreement","Very Strong Agreement"
"62","AI0TZEH5DNODH:36ZN444YTS47OMUM5ARZ4BWW1PNOIE","1",3,2,1,"5","<p style=""font-size:100px""><b>P</b></p><p style=""position: absolute; top: 30px; right: 30px; text-align:right; font-size:50px"""">N = 1</p>","P",0,69,57.6000000238419,0,"agree",14,16,16,15,16,"25","male","","Very Strong Agreement","Slight Agreement","Very Strong Agreement","Very Strong Agreement","Very Strong Agreement","Very Strong Agreement","Very Strong Agreement","Very Strong Agreement","Very Strong Agreement","Very Strong Agreement","Very Strong Agreement","Very Strong Agreement","Very Strong Agreement","Very Strong Agreement","Very Strong Agreement","Very Strong Agreement","Very Strong Agreement","Very Strong Agreement"
"63","AI0TZEH5DNODH:36ZN444YTS47OMUM5ARZ4BWW1PNOIE","1",3,3,1,"5","<p style=""font-size:100px""><b>T</b></p><p style=""position: absolute; top: 30px; right: 30px; text-align:right; font-size:50px"""">N = 1</p>","T",0,73,12.8000000715256,1,"agree",14,16,16,15,16,"25","male","","Very Strong Agreement","Slight Agreement","Very Strong Agreement","Very Strong Agreement","Very Strong Agreement","Very Strong Agreement","Very Strong Agreement","Very Strong Agreement","Very Strong Agreement","Very Strong Agreement","Very Strong Agreement","Very Strong Agreement","Very Strong Agreement","Very Strong Agreement","Very Strong Agreement","Very Strong Agreement","Very Strong Agreement","Very Strong Agreement"
"64","AI0TZEH5DNODH:36ZN444YTS47OMUM5ARZ4BWW1PNOIE","1",3,4,1,"5","<p style=""font-size:100px""><b>T</b></p><p style=""position: absolute; top: 30px; right: 30px; text-align:right; font-size:50px"""">N = 1</p>","T",0,73,19.5,1,"agree",14,16,16,15,16,"25","male","","Very Strong Agreement","Slight Agreement","Very Strong Agreement","Very Strong Agreement","Very Strong Agreement","Very Strong Agreement","Very Strong Agreement","Very Strong Agreement","Very Strong Agreement","Very Strong Agreement","Very Strong Agreement","Very Strong Agreement","Very Strong Agreement","Very Strong Agreement","Very Strong Agreement","Very Strong Agreement","Very Strong Agreement","Very Strong Agreement"
"65","AI0TZEH5DNODH:36ZN444YTS47OMUM5ARZ4BWW1PNOIE","1",3,5,1,"5","<p style=""font-size:100px""><b>T</b></p><p style=""position: absolute; top: 30px; right: 30px; text-align:right; font-size:50px"""">N = 1</p>","T",0,69,253.900000095367,0,"agree",14,16,16,15,16,"25","male","","Very Strong Agreement","Slight Agreement","Very Strong Agreement","Very Strong Agreement","Very Strong Agreement","Very Strong Agreement","Very Strong Agreement","Very Strong Agreement","Very Strong Agreement","Very Strong Agreement","Very Strong Agreement","Very Strong Agreement","Very Strong Agreement","Very Strong Agreement","Very Strong Agreement","Very Strong Agreement","Very Strong Agreement","Very Strong Agreement"
"66","AI0TZEH5DNODH:36ZN444YTS47OMUM5ARZ4BWW1PNOIE","1",3,6,1,"5","<p style=""font-size:100px""><b>G</b></p><p style=""position: absolute; top: 30px; right: 30px; text-align:right; font-size:50px"""">N = 1</p>","G",0,73,34.7999999523163,1,"agree",14,16,16,15,16,"25","male","","Very Strong Agreement","Slight Agreement","Very Strong Agreement","Very Strong Agreement","Very Strong Agreement","Very Strong Agreement","Very Strong Agreement","Very Strong Agreement","Very Strong Agreement","Very Strong Agreement","Very Strong Agreement","Very Strong Agreement","Very Strong Agreement","Very Strong Agreement","Very Strong Agreement","Very Strong Agreement","Very Strong Agreement","Very Strong Agreement"
"67","AI0TZEH5DNODH:36ZN444YTS47OMUM5ARZ4BWW1PNOIE","1",3,7,1,"5","<p style=""font-size:100px""><b>b</b></p><p style=""position: absolute; top: 30px; right: 30px; text-align:right; font-size:50px"""">N = 1</p>","b",0,73,171.599999904633,1,"agree",14,16,16,15,16,"25","male","","Very Strong Agreement","Slight Agreement","Very Strong Agreement","Very Strong Agreement","Very Strong Agreement","Very Strong Agreement","Very Strong Agreement","Very Strong Agreement","Very Strong Agreement","Very Strong Agreement","Very Strong Agreement","Very Strong Agreement","Very Strong Agreement","Very Strong Agreement","Very Strong Agreement","Very Strong Agreement","Very Strong Agreement","Very Strong Agreement"
"68","AI0TZEH5DNODH:36ZN444YTS47OMUM5ARZ4BWW1PNOIE","1",3,8,1,"5","<p style=""font-size:100px""><b>T</b></p><p style=""position: absolute; top: 30px; right: 30px; text-align:right; font-size:50px"""">N = 1</p>","T",0,73,177.5,1,"agree",14,16,16,15,16,"25","male","","Very Strong Agreement","Slight Agreement","Very Strong Agreement","Very Strong Agreement","Very Strong Agreement","Very Strong Agreement","Very Strong Agreement","Very Strong Agreement","Very Strong Agreement","Very Strong Agreement","Very Strong Agreement","Very Strong Agreement","Very Strong Agreement","Very Strong Agreement","Very Strong Agreement","Very Strong Agreement","Very Strong Agreement","Very Strong Agreement"
"69","AI0TZEH5DNODH:36ZN444YTS47OMUM5ARZ4BWW1PNOIE","1",3,9,1,"5","<p style=""font-size:100px""><b>G</b></p><p style=""position: absolute; top: 30px; right: 30px; text-align:right; font-size:50px"""">N = 1</p>","G",0,69,173,0,"agree",14,16,16,15,16,"25","male","","Very Strong Agreement","Slight Agreement","Very Strong Agreement","Very Strong Agreement","Very Strong Agreement","Very Strong Agreement","Very Strong Agreement","Very Strong Agreement","Very Strong Agreement","Very Strong Agreement","Very Strong Agreement","Very Strong Agreement","Very Strong Agreement","Very Strong Agreement","Very Strong Agreement","Very Strong Agreement","Very Strong Agreement","Very Strong Agreement"
"70","AI0TZEH5DNODH:36ZN444YTS47OMUM5ARZ4BWW1PNOIE","1",3,10,1,"5","<p style=""font-size:100px""><b>G</b></p><p style=""position: absolute; top: 30px; right: 30px; text-align:right; font-size:50px"""">N = 1</p>","G",0,73,221.700000047684,1,"agree",14,16,16,15,16,"25","male","","Very Strong Agreement","Slight Agreement","Very Strong Agreement","Very Strong Agreement","Very Strong Agreement","Very Strong Agreement","Very Strong Agreement","Very Strong Agreement","Very Strong Agreement","Very Strong Agreement","Very Strong Agreement","Very Strong Agreement","Very Strong Agreement","Very Strong Agreement","Very Strong Agreement","Very Strong Agreement","Very Strong Agreement","Very Strong Agreement"
"71","AI0TZEH5DNODH:36ZN444YTS47OMUM5ARZ4BWW1PNOIE","1",3,11,1,"5","<p style=""font-size:100px""><b>D</b></p><p style=""position: absolute; top: 30px; right: 30px; text-align:right; font-size:50px"""">N = 1</p>","D",0,69,48.6000000238419,0,"agree",14,16,16,15,16,"25","male","","Very Strong Agreement","Slight Agreement","Very Strong Agreement","Very Strong Agreement","Very Strong Agreement","Very Strong Agreement","Very Strong Agreement","Very Strong Agreement","Very Strong Agreement","Very Strong Agreement","Very Strong Agreement","Very Strong Agreement","Very Strong Agreement","Very Strong Agreement","Very Strong Agreement","Very Strong Agreement","Very Strong Agreement","Very Strong Agreement"
"72","AI0TZEH5DNODH:36ZN444YTS47OMUM5ARZ4BWW1PNOIE","1",3,12,1,"5","<p style=""font-size:100px""><b>D</b></p><p style=""position: absolute; top: 30px; right: 30px; text-align:right; font-size:50px"""">N = 1</p>","D",0,73,90.5,1,"agree",14,16,16,15,16,"25","male","","Very Strong Agreement","Slight Agreement","Very Strong Agreement","Very Strong Agreement","Very Strong Agreement","Very Strong Agreement","Very Strong Agreement","Very Strong Agreement","Very Strong Agreement","Very Strong Agreement","Very Strong Agreement","Very Strong Agreement","Very Strong Agreement","Very Strong Agreement","Very Strong Agreement","Very Strong Agreement","Very Strong Agreement","Very Strong Agreement"
"73","AI0TZEH5DNODH:36ZN444YTS47OMUM5ARZ4BWW1PNOIE","1",4,1,1,"50","<p style=""font-size:100px""><b>p</b></p><p style=""position: absolute; top: 30px; right: 30px; text-align:right; font-size:50px"""">N = 1</p>","p",0,NA,NA,0,"agree",18,15,16,12,15,"25","male","","Very Strong Agreement","Slight Agreement","Very Strong Agreement","Very Strong Agreement","Very Strong Agreement","Very Strong Agreement","Very Strong Agreement","Very Strong Agreement","Very Strong Agreement","Very Strong Agreement","Very Strong Agreement","Very Strong Agreement","Very Strong Agreement","Very Strong Agreement","Very Strong Agreement","Very Strong Agreement","Very Strong Agreement","Very Strong Agreement"
"74","AI0TZEH5DNODH:36ZN444YTS47OMUM5ARZ4BWW1PNOIE","1",4,2,1,"50","<p style=""font-size:100px""><b>p</b></p><p style=""position: absolute; top: 30px; right: 30px; text-align:right; font-size:50px"""">N = 1</p>","p",0,73,164.899999976158,1,"agree",18,15,16,12,15,"25","male","","Very Strong Agreement","Slight Agreement","Very Strong Agreement","Very Strong Agreement","Very Strong Agreement","Very Strong Agreement","Very Strong Agreement","Very Strong Agreement","Very Strong Agreement","Very Strong Agreement","Very Strong Agreement","Very Strong Agreement","Very Strong Agreement","Very Strong Agreement","Very Strong Agreement","Very Strong Agreement","Very Strong Agreement","Very Strong Agreement"
"75","AI0TZEH5DNODH:36ZN444YTS47OMUM5ARZ4BWW1PNOIE","1",4,3,1,"50","<p style=""font-size:100px""><b>p</b></p><p style=""position: absolute; top: 30px; right: 30px; text-align:right; font-size:50px"""">N = 1</p>","p",0,73,77.2999999523163,1,"agree",18,15,16,12,15,"25","male","","Very Strong Agreement","Slight Agreement","Very Strong Agreement","Very Strong Agreement","Very Strong Agreement","Very Strong Agreement","Very Strong Agreement","Very Strong Agreement","Very Strong Agreement","Very Strong Agreement","Very Strong Agreement","Very Strong Agreement","Very Strong Agreement","Very Strong Agreement","Very Strong Agreement","Very Strong Agreement","Very Strong Agreement","Very Strong Agreement"
"76","AI0TZEH5DNODH:36ZN444YTS47OMUM5ARZ4BWW1PNOIE","1",4,4,1,"50","<p style=""font-size:100px""><b>p</b></p><p style=""position: absolute; top: 30px; right: 30px; text-align:right; font-size:50px"""">N = 1</p>","p",0,NA,NA,0,"agree",18,15,16,12,15,"25","male","","Very Strong Agreement","Slight Agreement","Very Strong Agreement","Very Strong Agreement","Very Strong Agreement","Very Strong Agreement","Very Strong Agreement","Very Strong Agreement","Very Strong Agreement","Very Strong Agreement","Very Strong Agreement","Very Strong Agreement","Very Strong Agreement","Very Strong Agreement","Very Strong Agreement","Very Strong Agreement","Very Strong Agreement","Very Strong Agreement"
"77","AI0TZEH5DNODH:36ZN444YTS47OMUM5ARZ4BWW1PNOIE","1",4,5,1,"50","<p style=""font-size:100px""><b>p</b></p><p style=""position: absolute; top: 30px; right: 30px; text-align:right; font-size:50px"""">N = 1</p>","p",0,NA,NA,0,"agree",18,15,16,12,15,"25","male","","Very Strong Agreement","Slight Agreement","Very Strong Agreement","Very Strong Agreement","Very Strong Agreement","Very Strong Agreement","Very Strong Agreement","Very Strong Agreement","Very Strong Agreement","Very Strong Agreement","Very Strong Agreement","Very Strong Agreement","Very Strong Agreement","Very Strong Agreement","Very Strong Agreement","Very Strong Agreement","Very Strong Agreement","Very Strong Agreement"
"78","AI0TZEH5DNODH:36ZN444YTS47OMUM5ARZ4BWW1PNOIE","1",4,6,1,"50","<p style=""font-size:100px""><b>D</b></p><p style=""position: absolute; top: 30px; right: 30px; text-align:right; font-size:50px"""">N = 1</p>","D",0,73,652.199999928474,1,"agree",18,15,16,12,15,"25","male","","Very Strong Agreement","Slight Agreement","Very Strong Agreement","Very Strong Agreement","Very Strong Agreement","Very Strong Agreement","Very Strong Agreement","Very Strong Agreement","Very Strong Agreement","Very Strong Agreement","Very Strong Agreement","Very Strong Agreement","Very Strong Agreement","Very Strong Agreement","Very Strong Agreement","Very Strong Agreement","Very Strong Agreement","Very Strong Agreement"
"79","AI0TZEH5DNODH:36ZN444YTS47OMUM5ARZ4BWW1PNOIE","1",4,7,1,"50","<p style=""font-size:100px""><b>v</b></p><p style=""position: absolute; top: 30px; right: 30px; text-align:right; font-size:50px"""">N = 1</p>","v",0,73,134.700000047684,1,"agree",18,15,16,12,15,"25","male","","Very Strong Agreement","Slight Agreement","Very Strong Agreement","Very Strong Agreement","Very Strong Agreement","Very Strong Agreement","Very Strong Agreement","Very Strong Agreement","Very Strong Agreement","Very Strong Agreement","Very Strong Agreement","Very Strong Agreement","Very Strong Agreement","Very Strong Agreement","Very Strong Agreement","Very Strong Agreement","Very Strong Agreement","Very Strong Agreement"
"80","AI0TZEH5DNODH:36ZN444YTS47OMUM5ARZ4BWW1PNOIE","1",4,8,1,"50","<p style=""font-size:100px""><b>P</b></p><p style=""position: absolute; top: 30px; right: 30px; text-align:right; font-size:50px"""">N = 1</p>","P",0,73,158.899999976158,1,"agree",18,15,16,12,15,"25","male","","Very Strong Agreement","Slight Agreement","Very Strong Agreement","Very Strong Agreement","Very Strong Agreement","Very Strong Agreement","Very Strong Agreement","Very Strong Agreement","Very Strong Agreement","Very Strong Agreement","Very Strong Agreement","Very Strong Agreement","Very Strong Agreement","Very Strong Agreement","Very Strong Agreement","Very Strong Agreement","Very Strong Agreement","Very Strong Agreement"
"81","AI0TZEH5DNODH:36ZN444YTS47OMUM5ARZ4BWW1PNOIE","1",4,9,1,"50","<p style=""font-size:100px""><b>G</b></p><p style=""position: absolute; top: 30px; right: 30px; text-align:right; font-size:50px"""">N = 1</p>","G",0,73,158.600000023842,1,"agree",18,15,16,12,15,"25","male","","Very Strong Agreement","Slight Agreement","Very Strong Agreement","Very Strong Agreement","Very Strong Agreement","Very Strong Agreement","Very Strong Agreement","Very Strong Agreement","Very Strong Agreement","Very Strong Agreement","Very Strong Agreement","Very Strong Agreement","Very Strong Agreement","Very Strong Agreement","Very Strong Agreement","Very Strong Agreement","Very Strong Agreement","Very Strong Agreement"
"82","AI0TZEH5DNODH:36ZN444YTS47OMUM5ARZ4BWW1PNOIE","1",4,10,1,"50","<p style=""font-size:100px""><b>P</b></p><p style=""position: absolute; top: 30px; right: 30px; text-align:right; font-size:50px"""">N = 1</p>","P",0,69,186.600000023842,0,"agree",18,15,16,12,15,"25","male","","Very Strong Agreement","Slight Agreement","Very Strong Agreement","Very Strong Agreement","Very Strong Agreement","Very Strong Agreement","Very Strong Agreement","Very Strong Agreement","Very Strong Agreement","Very Strong Agreement","Very Strong Agreement","Very Strong Agreement","Very Strong Agreement","Very Strong Agreement","Very Strong Agreement","Very Strong Agreement","Very Strong Agreement","Very Strong Agreement"
"83","AI0TZEH5DNODH:36ZN444YTS47OMUM5ARZ4BWW1PNOIE","1",4,11,1,"50","<p style=""font-size:100px""><b>d</b></p><p style=""position: absolute; top: 30px; right: 30px; text-align:right; font-size:50px"""">N = 1</p>","d",0,69,205.700000047684,0,"agree",18,15,16,12,15,"25","male","","Very Strong Agreement","Slight Agreement","Very Strong Agreement","Very Strong Agreement","Very Strong Agreement","Very Strong Agreement","Very Strong Agreement","Very Strong Agreement","Very Strong Agreement","Very Strong Agreement","Very Strong Agreement","Very Strong Agreement","Very Strong Agreement","Very Strong Agreement","Very Strong Agreement","Very Strong Agreement","Very Strong Agreement","Very Strong Agreement"
"84","AI0TZEH5DNODH:36ZN444YTS47OMUM5ARZ4BWW1PNOIE","1",4,12,1,"50","<p style=""font-size:100px""><b>B</b></p><p style=""position: absolute; top: 30px; right: 30px; text-align:right; font-size:50px"""">N = 1</p>","B",0,73,6.69999992847443,1,"agree",18,15,16,12,15,"25","male","","Very Strong Agreement","Slight Agreement","Very Strong Agreement","Very Strong Agreement","Very Strong Agreement","Very Strong Agreement","Very Strong Agreement","Very Strong Agreement","Very Strong Agreement","Very Strong Agreement","Very Strong Agreement","Very Strong Agreement","Very Strong Agreement","Very Strong Agreement","Very Strong Agreement","Very Strong Agreement","Very Strong Agreement","Very Strong Agreement"
"85","AI0TZEH5DNODH:36ZN444YTS47OMUM5ARZ4BWW1PNOIE","1",5,1,3,"50","<p style=""font-size:100px""><b>G</b></p><p style=""position: absolute; top: 30px; right: 30px; text-align:right; font-size:50px"""">N = 3</p>","G",0,NA,NA,0,"agree",17,16,16,14,16,"25","male","","Very Strong Agreement","Slight Agreement","Very Strong Agreement","Very Strong Agreement","Very Strong Agreement","Very Strong Agreement","Very Strong Agreement","Very Strong Agreement","Very Strong Agreement","Very Strong Agreement","Very Strong Agreement","Very Strong Agreement","Very Strong Agreement","Very Strong Agreement","Very Strong Agreement","Very Strong Agreement","Very Strong Agreement","Very Strong Agreement"
"86","AI0TZEH5DNODH:36ZN444YTS47OMUM5ARZ4BWW1PNOIE","1",5,2,3,"50","<p style=""font-size:100px""><b>D</b></p><p style=""position: absolute; top: 30px; right: 30px; text-align:right; font-size:50px"""">N = 3</p>","D",0,73,7.39999997615814,1,"agree",17,16,16,14,16,"25","male","","Very Strong Agreement","Slight Agreement","Very Strong Agreement","Very Strong Agreement","Very Strong Agreement","Very Strong Agreement","Very Strong Agreement","Very Strong Agreement","Very Strong Agreement","Very Strong Agreement","Very Strong Agreement","Very Strong Agreement","Very Strong Agreement","Very Strong Agreement","Very Strong Agreement","Very Strong Agreement","Very Strong Agreement","Very Strong Agreement"
"87","AI0TZEH5DNODH:36ZN444YTS47OMUM5ARZ4BWW1PNOIE","1",5,3,3,"50","<p style=""font-size:100px""><b>T</b></p><p style=""position: absolute; top: 30px; right: 30px; text-align:right; font-size:50px"""">N = 3</p>","T",0,73,10.5999999046326,1,"agree",17,16,16,14,16,"25","male","","Very Strong Agreement","Slight Agreement","Very Strong Agreement","Very Strong Agreement","Very Strong Agreement","Very Strong Agreement","Very Strong Agreement","Very Strong Agreement","Very Strong Agreement","Very Strong Agreement","Very Strong Agreement","Very Strong Agreement","Very Strong Agreement","Very Strong Agreement","Very Strong Agreement","Very Strong Agreement","Very Strong Agreement","Very Strong Agreement"
"88","AI0TZEH5DNODH:36ZN444YTS47OMUM5ARZ4BWW1PNOIE","1",5,4,3,"50","<p style=""font-size:100px""><b>G</b></p><p style=""position: absolute; top: 30px; right: 30px; text-align:right; font-size:50px"""">N = 3</p>","G",0,73,10.6000000238419,1,"agree",17,16,16,14,16,"25","male","","Very Strong Agreement","Slight Agreement","Very Strong Agreement","Very Strong Agreement","Very Strong Agreement","Very Strong Agreement","Very Strong Agreement","Very Strong Agreement","Very Strong Agreement","Very Strong Agreement","Very Strong Agreement","Very Strong Agreement","Very Strong Agreement","Very Strong Agreement","Very Strong Agreement","Very Strong Agreement","Very Strong Agreement","Very Strong Agreement"
"89","AI0TZEH5DNODH:36ZN444YTS47OMUM5ARZ4BWW1PNOIE","1",5,5,3,"50","<p style=""font-size:100px""><b>p</b></p><p style=""position: absolute; top: 30px; right: 30px; text-align:right; font-size:50px"""">N = 3</p>","p",0,73,39,1,"agree",17,16,16,14,16,"25","male","","Very Strong Agreement","Slight Agreement","Very Strong Agreement","Very Strong Agreement","Very Strong Agreement","Very Strong Agreement","Very Strong Agreement","Very Strong Agreement","Very Strong Agreement","Very Strong Agreement","Very Strong Agreement","Very Strong Agreement","Very Strong Agreement","Very Strong Agreement","Very Strong Agreement","Very Strong Agreement","Very Strong Agreement","Very Strong Agreement"
"90","AI0TZEH5DNODH:36ZN444YTS47OMUM5ARZ4BWW1PNOIE","1",5,6,3,"50","<p style=""font-size:100px""><b>b</b></p><p style=""position: absolute; top: 30px; right: 30px; text-align:right; font-size:50px"""">N = 3</p>","b",0,73,894.799999952316,1,"agree",17,16,16,14,16,"25","male","","Very Strong Agreement","Slight Agreement","Very Strong Agreement","Very Strong Agreement","Very Strong Agreement","Very Strong Agreement","Very Strong Agreement","Very Strong Agreement","Very Strong Agreement","Very Strong Agreement","Very Strong Agreement","Very Strong Agreement","Very Strong Agreement","Very Strong Agreement","Very Strong Agreement","Very Strong Agreement","Very Strong Agreement","Very Strong Agreement"
"91","AI0TZEH5DNODH:36ZN444YTS47OMUM5ARZ4BWW1PNOIE","1",5,7,3,"50","<p style=""font-size:100px""><b>v</b></p><p style=""position: absolute; top: 30px; right: 30px; text-align:right; font-size:50px"""">N = 3</p>","v",0,NA,NA,0,"agree",17,16,16,14,16,"25","male","","Very Strong Agreement","Slight Agreement","Very Strong Agreement","Very Strong Agreement","Very Strong Agreement","Very Strong Agreement","Very Strong Agreement","Very Strong Agreement","Very Strong Agreement","Very Strong Agreement","Very Strong Agreement","Very Strong Agreement","Very Strong Agreement","Very Strong Agreement","Very Strong Agreement","Very Strong Agreement","Very Strong Agreement","Very Strong Agreement"
"92","AI0TZEH5DNODH:36ZN444YTS47OMUM5ARZ4BWW1PNOIE","1",5,8,3,"50","<p style=""font-size:100px""><b>p</b></p><p style=""position: absolute; top: 30px; right: 30px; text-align:right; font-size:50px"""">N = 3</p>","p",0,73,318.399999976158,1,"agree",17,16,16,14,16,"25","male","","Very Strong Agreement","Slight Agreement","Very Strong Agreement","Very Strong Agreement","Very Strong Agreement","Very Strong Agreement","Very Strong Agreement","Very Strong Agreement","Very Strong Agreement","Very Strong Agreement","Very Strong Agreement","Very Strong Agreement","Very Strong Agreement","Very Strong Agreement","Very Strong Agreement","Very Strong Agreement","Very Strong Agreement","Very Strong Agreement"
"93","AI0TZEH5DNODH:36ZN444YTS47OMUM5ARZ4BWW1PNOIE","1",5,9,3,"50","<p style=""font-size:100px""><b>P</b></p><p style=""position: absolute; top: 30px; right: 30px; text-align:right; font-size:50px"""">N = 3</p>","P",0,73,484.699999928474,1,"agree",17,16,16,14,16,"25","male","","Very Strong Agreement","Slight Agreement","Very Strong Agreement","Very Strong Agreement","Very Strong Agreement","Very Strong Agreement","Very Strong Agreement","Very Strong Agreement","Very Strong Agreement","Very Strong Agreement","Very Strong Agreement","Very Strong Agreement","Very Strong Agreement","Very Strong Agreement","Very Strong Agreement","Very Strong Agreement","Very Strong Agreement","Very Strong Agreement"
"94","AI0TZEH5DNODH:36ZN444YTS47OMUM5ARZ4BWW1PNOIE","1",5,10,3,"50","<p style=""font-size:100px""><b>B</b></p><p style=""position: absolute; top: 30px; right: 30px; text-align:right; font-size:50px"""">N = 3</p>","B",0,69,1.10000002384186,0,"agree",17,16,16,14,16,"25","male","","Very Strong Agreement","Slight Agreement","Very Strong Agreement","Very Strong Agreement","Very Strong Agreement","Very Strong Agreement","Very Strong Agreement","Very Strong Agreement","Very Strong Agreement","Very Strong Agreement","Very Strong Agreement","Very Strong Agreement","Very Strong Agreement","Very Strong Agreement","Very Strong Agreement","Very Strong Agreement","Very Strong Agreement","Very Strong Agreement"
"95","AI0TZEH5DNODH:36ZN444YTS47OMUM5ARZ4BWW1PNOIE","1",5,11,3,"50","<p style=""font-size:100px""><b>p</b></p><p style=""position: absolute; top: 30px; right: 30px; text-align:right; font-size:50px"""">N = 3</p>","p",0,69,0.199999928474426,0,"agree",17,16,16,14,16,"25","male","","Very Strong Agreement","Slight Agreement","Very Strong Agreement","Very Strong Agreement","Very Strong Agreement","Very Strong Agreement","Very Strong Agreement","Very Strong Agreement","Very Strong Agreement","Very Strong Agreement","Very Strong Agreement","Very Strong Agreement","Very Strong Agreement","Very Strong Agreement","Very Strong Agreement","Very Strong Agreement","Very Strong Agreement","Very Strong Agreement"
"96","AI0TZEH5DNODH:36ZN444YTS47OMUM5ARZ4BWW1PNOIE","1",5,12,3,"50","<p style=""font-size:100px""><b>P</b></p><p style=""position: absolute; top: 30px; right: 30px; text-align:right; font-size:50px"""">N = 3</p>","P",0,73,0.100000023841858,1,"agree",17,16,16,14,16,"25","male","","Very Strong Agreement","Slight Agreement","Very Strong Agreement","Very Strong Agreement","Very Strong Agreement","Very Strong Agreement","Very Strong Agreement","Very Strong Agreement","Very Strong Agreement","Very Strong Agreement","Very Strong Agreement","Very Strong Agreement","Very Strong Agreement","Very Strong Agreement","Very Strong Agreement","Very Strong Agreement","Very Strong Agreement","Very Strong Agreement"
"97","AI0TZEH5DNODH:36ZN444YTS47OMUM5ARZ4BWW1PNOIE","1",6,1,2,"5","<p style=""font-size:100px""><b>V</b></p><p style=""position: absolute; top: 30px; right: 30px; text-align:right; font-size:50px"""">N = 2</p>","V",0,NA,NA,0,"agree",9,15,16,13,15,"25","male","","Very Strong Agreement","Slight Agreement","Very Strong Agreement","Very Strong Agreement","Very Strong Agreement","Very Strong Agreement","Very Strong Agreement","Very Strong Agreement","Very Strong Agreement","Very Strong Agreement","Very Strong Agreement","Very Strong Agreement","Very Strong Agreement","Very Strong Agreement","Very Strong Agreement","Very Strong Agreement","Very Strong Agreement","Very Strong Agreement"
"98","AI0TZEH5DNODH:36ZN444YTS47OMUM5ARZ4BWW1PNOIE","1",6,2,2,"5","<p style=""font-size:100px""><b>T</b></p><p style=""position: absolute; top: 30px; right: 30px; text-align:right; font-size:50px"""">N = 2</p>","T",0,69,576.5,0,"agree",9,15,16,13,15,"25","male","","Very Strong Agreement","Slight Agreement","Very Strong Agreement","Very Strong Agreement","Very Strong Agreement","Very Strong Agreement","Very Strong Agreement","Very Strong Agreement","Very Strong Agreement","Very Strong Agreement","Very Strong Agreement","Very Strong Agreement","Very Strong Agreement","Very Strong Agreement","Very Strong Agreement","Very Strong Agreement","Very Strong Agreement","Very Strong Agreement"
"99","AI0TZEH5DNODH:36ZN444YTS47OMUM5ARZ4BWW1PNOIE","1",6,3,2,"5","<p style=""font-size:100px""><b>V</b></p><p style=""position: absolute; top: 30px; right: 30px; text-align:right; font-size:50px"""">N = 2</p>","V",0,69,402.600000023842,0,"agree",9,15,16,13,15,"25","male","","Very Strong Agreement","Slight Agreement","Very Strong Agreement","Very Strong Agreement","Very Strong Agreement","Very Strong Agreement","Very Strong Agreement","Very Strong Agreement","Very Strong Agreement","Very Strong Agreement","Very Strong Agreement","Very Strong Agreement","Very Strong Agreement","Very Strong Agreement","Very Strong Agreement","Very Strong Agreement","Very Strong Agreement","Very Strong Agreement"
"100","AI0TZEH5DNODH:36ZN444YTS47OMUM5ARZ4BWW1PNOIE","1",6,4,2,"5","<p style=""font-size:100px""><b>V</b></p><p style=""position: absolute; top: 30px; right: 30px; text-align:right; font-size:50px"""">N = 2</p>","V",0,73,536.5,1,"agree",9,15,16,13,15,"25","male","","Very Strong Agreement","Slight Agreement","Very Strong Agreement","Very Strong Agreement","Very Strong Agreement","Very Strong Agreement","Very Strong Agreement","Very Strong Agreement","Very Strong Agreement","Very Strong Agreement","Very Strong Agreement","Very Strong Agreement","Very Strong Agreement","Very Strong Agreement","Very Strong Agreement","Very Strong Agreement","Very Strong Agreement","Very Strong Agreement"
"101","AI0TZEH5DNODH:36ZN444YTS47OMUM5ARZ4BWW1PNOIE","1",6,5,2,"5","<p style=""font-size:100px""><b>b</b></p><p style=""position: absolute; top: 30px; right: 30px; text-align:right; font-size:50px"""">N = 2</p>","b",0,69,449.199999928474,0,"agree",9,15,16,13,15,"25","male","","Very Strong Agreement","Slight Agreement","Very Strong Agreement","Very Strong Agreement","Very Strong Agreement","Very Strong Agreement","Very Strong Agreement","Very Strong Agreement","Very Strong Agreement","Very Strong Agreement","Very Strong Agreement","Very Strong Agreement","Very Strong Agreement","Very Strong Agreement","Very Strong Agreement","Very Strong Agreement","Very Strong Agreement","Very Strong Agreement"
"102","AI0TZEH5DNODH:36ZN444YTS47OMUM5ARZ4BWW1PNOIE","1",6,6,2,"5","<p style=""font-size:100px""><b>G</b></p><p style=""position: absolute; top: 30px; right: 30px; text-align:right; font-size:50px"""">N = 2</p>","G",0,69,385.899999976158,0,"agree",9,15,16,13,15,"25","male","","Very Strong Agreement","Slight Agreement","Very Strong Agreement","Very Strong Agreement","Very Strong Agreement","Very Strong Agreement","Very Strong Agreement","Very Strong Agreement","Very Strong Agreement","Very Strong Agreement","Very Strong Agreement","Very Strong Agreement","Very Strong Agreement","Very Strong Agreement","Very Strong Agreement","Very Strong Agreement","Very Strong Agreement","Very Strong Agreement"
"103","AI0TZEH5DNODH:36ZN444YTS47OMUM5ARZ4BWW1PNOIE","1",6,7,2,"5","<p style=""font-size:100px""><b>b</b></p><p style=""position: absolute; top: 30px; right: 30px; text-align:right; font-size:50px"""">N = 2</p>","b",0,NA,NA,0,"agree",9,15,16,13,15,"25","male","","Very Strong Agreement","Slight Agreement","Very Strong Agreement","Very Strong Agreement","Very Strong Agreement","Very Strong Agreement","Very Strong Agreement","Very Strong Agreement","Very Strong Agreement","Very Strong Agreement","Very Strong Agreement","Very Strong Agreement","Very Strong Agreement","Very Strong Agreement","Very Strong Agreement","Very Strong Agreement","Very Strong Agreement","Very Strong Agreement"
"104","AI0TZEH5DNODH:36ZN444YTS47OMUM5ARZ4BWW1PNOIE","1",6,8,2,"5","<p style=""font-size:100px""><b>G</b></p><p style=""position: absolute; top: 30px; right: 30px; text-align:right; font-size:50px"""">N = 2</p>","G",0,73,25.5,1,"agree",9,15,16,13,15,"25","male","","Very Strong Agreement","Slight Agreement","Very Strong Agreement","Very Strong Agreement","Very Strong Agreement","Very Strong Agreement","Very Strong Agreement","Very Strong Agreement","Very Strong Agreement","Very Strong Agreement","Very Strong Agreement","Very Strong Agreement","Very Strong Agreement","Very Strong Agreement","Very Strong Agreement","Very Strong Agreement","Very Strong Agreement","Very Strong Agreement"
"105","AI0TZEH5DNODH:36ZN444YTS47OMUM5ARZ4BWW1PNOIE","1",6,9,2,"5","<p style=""font-size:100px""><b>v</b></p><p style=""position: absolute; top: 30px; right: 30px; text-align:right; font-size:50px"""">N = 2</p>","v",0,NA,NA,0,"agree",9,15,16,13,15,"25","male","","Very Strong Agreement","Slight Agreement","Very Strong Agreement","Very Strong Agreement","Very Strong Agreement","Very Strong Agreement","Very Strong Agreement","Very Strong Agreement","Very Strong Agreement","Very Strong Agreement","Very Strong Agreement","Very Strong Agreement","Very Strong Agreement","Very Strong Agreement","Very Strong Agreement","Very Strong Agreement","Very Strong Agreement","Very Strong Agreement"
"106","AI0TZEH5DNODH:36ZN444YTS47OMUM5ARZ4BWW1PNOIE","1",6,10,2,"5","<p style=""font-size:100px""><b>V</b></p><p style=""position: absolute; top: 30px; right: 30px; text-align:right; font-size:50px"""">N = 2</p>","V",0,73,288.800000071526,1,"agree",9,15,16,13,15,"25","male","","Very Strong Agreement","Slight Agreement","Very Strong Agreement","Very Strong Agreement","Very Strong Agreement","Very Strong Agreement","Very Strong Agreement","Very Strong Agreement","Very Strong Agreement","Very Strong Agreement","Very Strong Agreement","Very Strong Agreement","Very Strong Agreement","Very Strong Agreement","Very Strong Agreement","Very Strong Agreement","Very Strong Agreement","Very Strong Agreement"
"107","AI0TZEH5DNODH:36ZN444YTS47OMUM5ARZ4BWW1PNOIE","1",6,11,2,"5","<p style=""font-size:100px""><b>g</b></p><p style=""position: absolute; top: 30px; right: 30px; text-align:right; font-size:50px"""">N = 2</p>","g",0,69,154.400000095367,0,"agree",9,15,16,13,15,"25","male","","Very Strong Agreement","Slight Agreement","Very Strong Agreement","Very Strong Agreement","Very Strong Agreement","Very Strong Agreement","Very Strong Agreement","Very Strong Agreement","Very Strong Agreement","Very Strong Agreement","Very Strong Agreement","Very Strong Agreement","Very Strong Agreement","Very Strong Agreement","Very Strong Agreement","Very Strong Agreement","Very Strong Agreement","Very Strong Agreement"
"108","AI0TZEH5DNODH:36ZN444YTS47OMUM5ARZ4BWW1PNOIE","1",6,12,2,"5","<p style=""font-size:100px""><b>V</b></p><p style=""position: absolute; top: 30px; right: 30px; text-align:right; font-size:50px"""">N = 2</p>","V",0,69,203.799999952316,0,"agree",9,15,16,13,15,"25","male","","Very Strong Agreement","Slight Agreement","Very Strong Agreement","Very Strong Agreement","Very Strong Agreement","Very Strong Agreement","Very Strong Agreement","Very Strong Agreement","Very Strong Agreement","Very Strong Agreement","Very Strong Agreement","Very Strong Agreement","Very Strong Agreement","Very Strong Agreement","Very Strong Agreement","Very Strong Agreement","Very Strong Agreement","Very Strong Agreement"
"109","AI0TZEH5DNODH:36ZN444YTS47OMUM5ARZ4BWW1PNOIE","2",7,1,2,"50","<p style=""font-size:100px""><b>p</b></p><p style=""position: absolute; top: 30px; right: 30px; text-align:right; font-size:50px"""">N = 2</p>","p",0,73,290.700000047684,1,"agree",14,13,14,14,15,"25","male","","Very Strong Agreement","Slight Agreement","Very Strong Agreement","Very Strong Agreement","Very Strong Agreement","Very Strong Agreement","Very Strong Agreement","Very Strong Agreement","Very Strong Agreement","Very Strong Agreement","Very Strong Agreement","Very Strong Agreement","Very Strong Agreement","Very Strong Agreement","Very Strong Agreement","Very Strong Agreement","Very Strong Agreement","Very Strong Agreement"
"110","AI0TZEH5DNODH:36ZN444YTS47OMUM5ARZ4BWW1PNOIE","2",7,2,2,"50","<p style=""font-size:100px""><b>d</b></p><p style=""position: absolute; top: 30px; right: 30px; text-align:right; font-size:50px"""">N = 2</p>","d",0,73,69.5,1,"agree",14,13,14,14,15,"25","male","","Very Strong Agreement","Slight Agreement","Very Strong Agreement","Very Strong Agreement","Very Strong Agreement","Very Strong Agreement","Very Strong Agreement","Very Strong Agreement","Very Strong Agreement","Very Strong Agreement","Very Strong Agreement","Very Strong Agreement","Very Strong Agreement","Very Strong Agreement","Very Strong Agreement","Very Strong Agreement","Very Strong Agreement","Very Strong Agreement"
"111","AI0TZEH5DNODH:36ZN444YTS47OMUM5ARZ4BWW1PNOIE","2",7,3,2,"50","<p style=""font-size:100px""><b>p</b></p><p style=""position: absolute; top: 30px; right: 30px; text-align:right; font-size:50px"""">N = 2</p>","p",0,73,183.299999952316,1,"agree",14,13,14,14,15,"25","male","","Very Strong Agreement","Slight Agreement","Very Strong Agreement","Very Strong Agreement","Very Strong Agreement","Very Strong Agreement","Very Strong Agreement","Very Strong Agreement","Very Strong Agreement","Very Strong Agreement","Very Strong Agreement","Very Strong Agreement","Very Strong Agreement","Very Strong Agreement","Very Strong Agreement","Very Strong Agreement","Very Strong Agreement","Very Strong Agreement"
"112","AI0TZEH5DNODH:36ZN444YTS47OMUM5ARZ4BWW1PNOIE","2",7,4,2,"50","<p style=""font-size:100px""><b>b</b></p><p style=""position: absolute; top: 30px; right: 30px; text-align:right; font-size:50px"""">N = 2</p>","b",0,69,128.700000047684,0,"agree",14,13,14,14,15,"25","male","","Very Strong Agreement","Slight Agreement","Very Strong Agreement","Very Strong Agreement","Very Strong Agreement","Very Strong Agreement","Very Strong Agreement","Very Strong Agreement","Very Strong Agreement","Very Strong Agreement","Very Strong Agreement","Very Strong Agreement","Very Strong Agreement","Very Strong Agreement","Very Strong Agreement","Very Strong Agreement","Very Strong Agreement","Very Strong Agreement"
"113","AI0TZEH5DNODH:36ZN444YTS47OMUM5ARZ4BWW1PNOIE","2",7,5,2,"50","<p style=""font-size:100px""><b>V</b></p><p style=""position: absolute; top: 30px; right: 30px; text-align:right; font-size:50px"""">N = 2</p>","V",0,69,149.300000071526,0,"agree",14,13,14,14,15,"25","male","","Very Strong Agreement","Slight Agreement","Very Strong Agreement","Very Strong Agreement","Very Strong Agreement","Very Strong Agreement","Very Strong Agreement","Very Strong Agreement","Very Strong Agreement","Very Strong Agreement","Very Strong Agreement","Very Strong Agreement","Very Strong Agreement","Very Strong Agreement","Very Strong Agreement","Very Strong Agreement","Very Strong Agreement","Very Strong Agreement"
"114","AI0TZEH5DNODH:36ZN444YTS47OMUM5ARZ4BWW1PNOIE","2",7,6,2,"50","<p style=""font-size:100px""><b>b</b></p><p style=""position: absolute; top: 30px; right: 30px; text-align:right; font-size:50px"""">N = 2</p>","b",0,73,83.8999999761581,1,"agree",14,13,14,14,15,"25","male","","Very Strong Agreement","Slight Agreement","Very Strong Agreement","Very Strong Agreement","Very Strong Agreement","Very Strong Agreement","Very Strong Agreement","Very Strong Agreement","Very Strong Agreement","Very Strong Agreement","Very Strong Agreement","Very Strong Agreement","Very Strong Agreement","Very Strong Agreement","Very Strong Agreement","Very Strong Agreement","Very Strong Agreement","Very Strong Agreement"
"115","AI0TZEH5DNODH:36ZN444YTS47OMUM5ARZ4BWW1PNOIE","2",7,7,2,"50","<p style=""font-size:100px""><b>P</b></p><p style=""position: absolute; top: 30px; right: 30px; text-align:right; font-size:50px"""">N = 2</p>","P",0,73,108.100000023842,1,"agree",14,13,14,14,15,"25","male","","Very Strong Agreement","Slight Agreement","Very Strong Agreement","Very Strong Agreement","Very Strong Agreement","Very Strong Agreement","Very Strong Agreement","Very Strong Agreement","Very Strong Agreement","Very Strong Agreement","Very Strong Agreement","Very Strong Agreement","Very Strong Agreement","Very Strong Agreement","Very Strong Agreement","Very Strong Agreement","Very Strong Agreement","Very Strong Agreement"
"116","AI0TZEH5DNODH:36ZN444YTS47OMUM5ARZ4BWW1PNOIE","2",7,8,2,"50","<p style=""font-size:100px""><b>v</b></p><p style=""position: absolute; top: 30px; right: 30px; text-align:right; font-size:50px"""">N = 2</p>","v",0,73,163.399999976158,1,"agree",14,13,14,14,15,"25","male","","Very Strong Agreement","Slight Agreement","Very Strong Agreement","Very Strong Agreement","Very Strong Agreement","Very Strong Agreement","Very Strong Agreement","Very Strong Agreement","Very Strong Agreement","Very Strong Agreement","Very Strong Agreement","Very Strong Agreement","Very Strong Agreement","Very Strong Agreement","Very Strong Agreement","Very Strong Agreement","Very Strong Agreement","Very Strong Agreement"
"117","AI0TZEH5DNODH:36ZN444YTS47OMUM5ARZ4BWW1PNOIE","2",7,9,2,"50","<p style=""font-size:100px""><b>P</b></p><p style=""position: absolute; top: 30px; right: 30px; text-align:right; font-size:50px"""">N = 2</p>","P",0,73,184.199999928474,1,"agree",14,13,14,14,15,"25","male","","Very Strong Agreement","Slight Agreement","Very Strong Agreement","Very Strong Agreement","Very Strong Agreement","Very Strong Agreement","Very Strong Agreement","Very Strong Agreement","Very Strong Agreement","Very Strong Agreement","Very Strong Agreement","Very Strong Agreement","Very Strong Agreement","Very Strong Agreement","Very Strong Agreement","Very Strong Agreement","Very Strong Agreement","Very Strong Agreement"
"118","AI0TZEH5DNODH:36ZN444YTS47OMUM5ARZ4BWW1PNOIE","2",7,10,2,"50","<p style=""font-size:100px""><b>d</b></p><p style=""position: absolute; top: 30px; right: 30px; text-align:right; font-size:50px"""">N = 2</p>","d",0,73,10.1999999284744,1,"agree",14,13,14,14,15,"25","male","","Very Strong Agreement","Slight Agreement","Very Strong Agreement","Very Strong Agreement","Very Strong Agreement","Very Strong Agreement","Very Strong Agreement","Very Strong Agreement","Very Strong Agreement","Very Strong Agreement","Very Strong Agreement","Very Strong Agreement","Very Strong Agreement","Very Strong Agreement","Very Strong Agreement","Very Strong Agreement","Very Strong Agreement","Very Strong Agreement"
"119","AI0TZEH5DNODH:36ZN444YTS47OMUM5ARZ4BWW1PNOIE","2",7,11,2,"50","<p style=""font-size:100px""><b>P</b></p><p style=""position: absolute; top: 30px; right: 30px; text-align:right; font-size:50px"""">N = 2</p>","P",0,69,164.5,0,"agree",14,13,14,14,15,"25","male","","Very Strong Agreement","Slight Agreement","Very Strong Agreement","Very Strong Agreement","Very Strong Agreement","Very Strong Agreement","Very Strong Agreement","Very Strong Agreement","Very Strong Agreement","Very Strong Agreement","Very Strong Agreement","Very Strong Agreement","Very Strong Agreement","Very Strong Agreement","Very Strong Agreement","Very Strong Agreement","Very Strong Agreement","Very Strong Agreement"
"120","AI0TZEH5DNODH:36ZN444YTS47OMUM5ARZ4BWW1PNOIE","2",7,12,2,"50","<p style=""font-size:100px""><b>g</b></p><p style=""position: absolute; top: 30px; right: 30px; text-align:right; font-size:50px"""">N = 2</p>","g",0,73,23.4000000953674,1,"agree",14,13,14,14,15,"25","male","","Very Strong Agreement","Slight Agreement","Very Strong Agreement","Very Strong Agreement","Very Strong Agreement","Very Strong Agreement","Very Strong Agreement","Very Strong Agreement","Very Strong Agreement","Very Strong Agreement","Very Strong Agreement","Very Strong Agreement","Very Strong Agreement","Very Strong Agreement","Very Strong Agreement","Very Strong Agreement","Very Strong Agreement","Very Strong Agreement"
"121","AI0TZEH5DNODH:36ZN444YTS47OMUM5ARZ4BWW1PNOIE","2",8,1,3,"5","<p style=""font-size:100px""><b>G</b></p><p style=""position: absolute; top: 30px; right: 30px; text-align:right; font-size:50px"""">N = 3</p>","G",0,NA,NA,0,"agree",14,20,13,19,13,"25","male","","Very Strong Agreement","Slight Agreement","Very Strong Agreement","Very Strong Agreement","Very Strong Agreement","Very Strong Agreement","Very Strong Agreement","Very Strong Agreement","Very Strong Agreement","Very Strong Agreement","Very Strong Agreement","Very Strong Agreement","Very Strong Agreement","Very Strong Agreement","Very Strong Agreement","Very Strong Agreement","Very Strong Agreement","Very Strong Agreement"
"122","AI0TZEH5DNODH:36ZN444YTS47OMUM5ARZ4BWW1PNOIE","2",8,2,3,"5","<p style=""font-size:100px""><b>P</b></p><p style=""position: absolute; top: 30px; right: 30px; text-align:right; font-size:50px"""">N = 3</p>","P",0,69,578.600000023842,0,"agree",14,20,13,19,13,"25","male","","Very Strong Agreement","Slight Agreement","Very Strong Agreement","Very Strong Agreement","Very Strong Agreement","Very Strong Agreement","Very Strong Agreement","Very Strong Agreement","Very Strong Agreement","Very Strong Agreement","Very Strong Agreement","Very Strong Agreement","Very Strong Agreement","Very Strong Agreement","Very Strong Agreement","Very Strong Agreement","Very Strong Agreement","Very Strong Agreement"
"123","AI0TZEH5DNODH:36ZN444YTS47OMUM5ARZ4BWW1PNOIE","2",8,3,3,"5","<p style=""font-size:100px""><b>d</b></p><p style=""position: absolute; top: 30px; right: 30px; text-align:right; font-size:50px"""">N = 3</p>","d",0,69,154.200000047684,0,"agree",14,20,13,19,13,"25","male","","Very Strong Agreement","Slight Agreement","Very Strong Agreement","Very Strong Agreement","Very Strong Agreement","Very Strong Agreement","Very Strong Agreement","Very Strong Agreement","Very Strong Agreement","Very Strong Agreement","Very Strong Agreement","Very Strong Agreement","Very Strong Agreement","Very Strong Agreement","Very Strong Agreement","Very Strong Agreement","Very Strong Agreement","Very Strong Agreement"
"124","AI0TZEH5DNODH:36ZN444YTS47OMUM5ARZ4BWW1PNOIE","2",8,4,3,"5","<p style=""font-size:100px""><b>T</b></p><p style=""position: absolute; top: 30px; right: 30px; text-align:right; font-size:50px"""">N = 3</p>","T",0,73,23.0999999046326,1,"agree",14,20,13,19,13,"25","male","","Very Strong Agreement","Slight Agreement","Very Strong Agreement","Very Strong Agreement","Very Strong Agreement","Very Strong Agreement","Very Strong Agreement","Very Strong Agreement","Very Strong Agreement","Very Strong Agreement","Very Strong Agreement","Very Strong Agreement","Very Strong Agreement","Very Strong Agreement","Very Strong Agreement","Very Strong Agreement","Very Strong Agreement","Very Strong Agreement"
"125","AI0TZEH5DNODH:36ZN444YTS47OMUM5ARZ4BWW1PNOIE","2",8,5,3,"5","<p style=""font-size:100px""><b>T</b></p><p style=""position: absolute; top: 30px; right: 30px; text-align:right; font-size:50px"""">N = 3</p>","T",0,69,219.600000023842,0,"agree",14,20,13,19,13,"25","male","","Very Strong Agreement","Slight Agreement","Very Strong Agreement","Very Strong Agreement","Very Strong Agreement","Very Strong Agreement","Very Strong Agreement","Very Strong Agreement","Very Strong Agreement","Very Strong Agreement","Very Strong Agreement","Very Strong Agreement","Very Strong Agreement","Very Strong Agreement","Very Strong Agreement","Very Strong Agreement","Very Strong Agreement","Very Strong Agreement"
"126","AI0TZEH5DNODH:36ZN444YTS47OMUM5ARZ4BWW1PNOIE","2",8,6,3,"5","<p style=""font-size:100px""><b>d</b></p><p style=""position: absolute; top: 30px; right: 30px; text-align:right; font-size:50px"""">N = 3</p>","d",0,69,234.100000023842,0,"agree",14,20,13,19,13,"25","male","","Very Strong Agreement","Slight Agreement","Very Strong Agreement","Very Strong Agreement","Very Strong Agreement","Very Strong Agreement","Very Strong Agreement","Very Strong Agreement","Very Strong Agreement","Very Strong Agreement","Very Strong Agreement","Very Strong Agreement","Very Strong Agreement","Very Strong Agreement","Very Strong Agreement","Very Strong Agreement","Very Strong Agreement","Very Strong Agreement"
"127","AI0TZEH5DNODH:36ZN444YTS47OMUM5ARZ4BWW1PNOIE","2",8,7,3,"5","<p style=""font-size:100px""><b>T</b></p><p style=""position: absolute; top: 30px; right: 30px; text-align:right; font-size:50px"""">N = 3</p>","T",0,69,209.899999976158,0,"agree",14,20,13,19,13,"25","male","","Very Strong Agreement","Slight Agreement","Very Strong Agreement","Very Strong Agreement","Very Strong Agreement","Very Strong Agreement","Very Strong Agreement","Very Strong Agreement","Very Strong Agreement","Very Strong Agreement","Very Strong Agreement","Very Strong Agreement","Very Strong Agreement","Very Strong Agreement","Very Strong Agreement","Very Strong Agreement","Very Strong Agreement","Very Strong Agreement"
"128","AI0TZEH5DNODH:36ZN444YTS47OMUM5ARZ4BWW1PNOIE","2",8,8,3,"5","<p style=""font-size:100px""><b>p</b></p><p style=""position: absolute; top: 30px; right: 30px; text-align:right; font-size:50px"""">N = 3</p>","p",0,73,153.300000071526,1,"agree",14,20,13,19,13,"25","male","","Very Strong Agreement","Slight Agreement","Very Strong Agreement","Very Strong Agreement","Very Strong Agreement","Very Strong Agreement","Very Strong Agreement","Very Strong Agreement","Very Strong Agreement","Very Strong Agreement","Very Strong Agreement","Very Strong Agreement","Very Strong Agreement","Very Strong Agreement","Very Strong Agreement","Very Strong Agreement","Very Strong Agreement","Very Strong Agreement"
"129","AI0TZEH5DNODH:36ZN444YTS47OMUM5ARZ4BWW1PNOIE","2",8,9,3,"5","<p style=""font-size:100px""><b>p</b></p><p style=""position: absolute; top: 30px; right: 30px; text-align:right; font-size:50px"""">N = 3</p>","p",0,69,244,0,"agree",14,20,13,19,13,"25","male","","Very Strong Agreement","Slight Agreement","Very Strong Agreement","Very Strong Agreement","Very Strong Agreement","Very Strong Agreement","Very Strong Agreement","Very Strong Agreement","Very Strong Agreement","Very Strong Agreement","Very Strong Agreement","Very Strong Agreement","Very Strong Agreement","Very Strong Agreement","Very Strong Agreement","Very Strong Agreement","Very Strong Agreement","Very Strong Agreement"
"130","AI0TZEH5DNODH:36ZN444YTS47OMUM5ARZ4BWW1PNOIE","2",8,10,3,"5","<p style=""font-size:100px""><b>T</b></p><p style=""position: absolute; top: 30px; right: 30px; text-align:right; font-size:50px"""">N = 3</p>","T",0,73,225.399999976158,1,"agree",14,20,13,19,13,"25","male","","Very Strong Agreement","Slight Agreement","Very Strong Agreement","Very Strong Agreement","Very Strong Agreement","Very Strong Agreement","Very Strong Agreement","Very Strong Agreement","Very Strong Agreement","Very Strong Agreement","Very Strong Agreement","Very Strong Agreement","Very Strong Agreement","Very Strong Agreement","Very Strong Agreement","Very Strong Agreement","Very Strong Agreement","Very Strong Agreement"
"131","AI0TZEH5DNODH:36ZN444YTS47OMUM5ARZ4BWW1PNOIE","2",8,11,3,"5","<p style=""font-size:100px""><b>p</b></p><p style=""position: absolute; top: 30px; right: 30px; text-align:right; font-size:50px"""">N = 3</p>","p",0,73,211.099999904633,1,"agree",14,20,13,19,13,"25","male","","Very Strong Agreement","Slight Agreement","Very Strong Agreement","Very Strong Agreement","Very Strong Agreement","Very Strong Agreement","Very Strong Agreement","Very Strong Agreement","Very Strong Agreement","Very Strong Agreement","Very Strong Agreement","Very Strong Agreement","Very Strong Agreement","Very Strong Agreement","Very Strong Agreement","Very Strong Agreement","Very Strong Agreement","Very Strong Agreement"
"132","AI0TZEH5DNODH:36ZN444YTS47OMUM5ARZ4BWW1PNOIE","2",8,12,3,"5","<p style=""font-size:100px""><b>d</b></p><p style=""position: absolute; top: 30px; right: 30px; text-align:right; font-size:50px"""">N = 3</p>","d",0,69,115.100000023842,0,"agree",14,20,13,19,13,"25","male","","Very Strong Agreement","Slight Agreement","Very Strong Agreement","Very Strong Agreement","Very Strong Agreement","Very Strong Agreement","Very Strong Agreement","Very Strong Agreement","Very Strong Agreement","Very Strong Agreement","Very Strong Agreement","Very Strong Agreement","Very Strong Agreement","Very Strong Agreement","Very Strong Agreement","Very Strong Agreement","Very Strong Agreement","Very Strong Agreement"
"133","AI0TZEH5DNODH:36ZN444YTS47OMUM5ARZ4BWW1PNOIE","2",9,1,1,"5","<p style=""font-size:100px""><b>B</b></p><p style=""position: absolute; top: 30px; right: 30px; text-align:right; font-size:50px"""">N = 1</p>","B",0,NA,NA,0,"agree",15,16,17,15,15,"25","male","","Very Strong Agreement","Slight Agreement","Very Strong Agreement","Very Strong Agreement","Very Strong Agreement","Very Strong Agreement","Very Strong Agreement","Very Strong Agreement","Very Strong Agreement","Very Strong Agreement","Very Strong Agreement","Very Strong Agreement","Very Strong Agreement","Very Strong Agreement","Very Strong Agreement","Very Strong Agreement","Very Strong Agreement","Very Strong Agreement"
"134","AI0TZEH5DNODH:36ZN444YTS47OMUM5ARZ4BWW1PNOIE","2",9,2,1,"5","<p style=""font-size:100px""><b>B</b></p><p style=""position: absolute; top: 30px; right: 30px; text-align:right; font-size:50px"""">N = 1</p>","B",0,NA,NA,0,"agree",15,16,17,15,15,"25","male","","Very Strong Agreement","Slight Agreement","Very Strong Agreement","Very Strong Agreement","Very Strong Agreement","Very Strong Agreement","Very Strong Agreement","Very Strong Agreement","Very Strong Agreement","Very Strong Agreement","Very Strong Agreement","Very Strong Agreement","Very Strong Agreement","Very Strong Agreement","Very Strong Agreement","Very Strong Agreement","Very Strong Agreement","Very Strong Agreement"
"135","AI0TZEH5DNODH:36ZN444YTS47OMUM5ARZ4BWW1PNOIE","2",9,3,1,"5","<p style=""font-size:100px""><b>B</b></p><p style=""position: absolute; top: 30px; right: 30px; text-align:right; font-size:50px"""">N = 1</p>","B",0,NA,NA,0,"agree",15,16,17,15,15,"25","male","","Very Strong Agreement","Slight Agreement","Very Strong Agreement","Very Strong Agreement","Very Strong Agreement","Very Strong Agreement","Very Strong Agreement","Very Strong Agreement","Very Strong Agreement","Very Strong Agreement","Very Strong Agreement","Very Strong Agreement","Very Strong Agreement","Very Strong Agreement","Very Strong Agreement","Very Strong Agreement","Very Strong Agreement","Very Strong Agreement"
"136","AI0TZEH5DNODH:36ZN444YTS47OMUM5ARZ4BWW1PNOIE","2",9,4,1,"5","<p style=""font-size:100px""><b>B</b></p><p style=""position: absolute; top: 30px; right: 30px; text-align:right; font-size:50px"""">N = 1</p>","B",0,NA,NA,0,"agree",15,16,17,15,15,"25","male","","Very Strong Agreement","Slight Agreement","Very Strong Agreement","Very Strong Agreement","Very Strong Agreement","Very Strong Agreement","Very Strong Agreement","Very Strong Agreement","Very Strong Agreement","Very Strong Agreement","Very Strong Agreement","Very Strong Agreement","Very Strong Agreement","Very Strong Agreement","Very Strong Agreement","Very Strong Agreement","Very Strong Agreement","Very Strong Agreement"
"137","AI0TZEH5DNODH:36ZN444YTS47OMUM5ARZ4BWW1PNOIE","2",9,5,1,"5","<p style=""font-size:100px""><b>t</b></p><p style=""position: absolute; top: 30px; right: 30px; text-align:right; font-size:50px"""">N = 1</p>","t",0,NA,NA,0,"agree",15,16,17,15,15,"25","male","","Very Strong Agreement","Slight Agreement","Very Strong Agreement","Very Strong Agreement","Very Strong Agreement","Very Strong Agreement","Very Strong Agreement","Very Strong Agreement","Very Strong Agreement","Very Strong Agreement","Very Strong Agreement","Very Strong Agreement","Very Strong Agreement","Very Strong Agreement","Very Strong Agreement","Very Strong Agreement","Very Strong Agreement","Very Strong Agreement"
"138","AI0TZEH5DNODH:36ZN444YTS47OMUM5ARZ4BWW1PNOIE","2",9,6,1,"5","<p style=""font-size:100px""><b>p</b></p><p style=""position: absolute; top: 30px; right: 30px; text-align:right; font-size:50px"""">N = 1</p>","p",0,NA,NA,0,"agree",15,16,17,15,15,"25","male","","Very Strong Agreement","Slight Agreement","Very Strong Agreement","Very Strong Agreement","Very Strong Agreement","Very Strong Agreement","Very Strong Agreement","Very Strong Agreement","Very Strong Agreement","Very Strong Agreement","Very Strong Agreement","Very Strong Agreement","Very Strong Agreement","Very Strong Agreement","Very Strong Agreement","Very Strong Agreement","Very Strong Agreement","Very Strong Agreement"
"139","AI0TZEH5DNODH:36ZN444YTS47OMUM5ARZ4BWW1PNOIE","2",9,7,1,"5","<p style=""font-size:100px""><b>d</b></p><p style=""position: absolute; top: 30px; right: 30px; text-align:right; font-size:50px"""">N = 1</p>","d",0,NA,NA,0,"agree",15,16,17,15,15,"25","male","","Very Strong Agreement","Slight Agreement","Very Strong Agreement","Very Strong Agreement","Very Strong Agreement","Very Strong Agreement","Very Strong Agreement","Very Strong Agreement","Very Strong Agreement","Very Strong Agreement","Very Strong Agreement","Very Strong Agreement","Very Strong Agreement","Very Strong Agreement","Very Strong Agreement","Very Strong Agreement","Very Strong Agreement","Very Strong Agreement"
"140","AI0TZEH5DNODH:36ZN444YTS47OMUM5ARZ4BWW1PNOIE","2",9,8,1,"5","<p style=""font-size:100px""><b>G</b></p><p style=""position: absolute; top: 30px; right: 30px; text-align:right; font-size:50px"""">N = 1</p>","G",0,NA,NA,0,"agree",15,16,17,15,15,"25","male","","Very Strong Agreement","Slight Agreement","Very Strong Agreement","Very Strong Agreement","Very Strong Agreement","Very Strong Agreement","Very Strong Agreement","Very Strong Agreement","Very Strong Agreement","Very Strong Agreement","Very Strong Agreement","Very Strong Agreement","Very Strong Agreement","Very Strong Agreement","Very Strong Agreement","Very Strong Agreement","Very Strong Agreement","Very Strong Agreement"
"141","AI0TZEH5DNODH:36ZN444YTS47OMUM5ARZ4BWW1PNOIE","2",9,9,1,"5","<p style=""font-size:100px""><b>T</b></p><p style=""position: absolute; top: 30px; right: 30px; text-align:right; font-size:50px"""">N = 1</p>","T",0,NA,NA,0,"agree",15,16,17,15,15,"25","male","","Very Strong Agreement","Slight Agreement","Very Strong Agreement","Very Strong Agreement","Very Strong Agreement","Very Strong Agreement","Very Strong Agreement","Very Strong Agreement","Very Strong Agreement","Very Strong Agreement","Very Strong Agreement","Very Strong Agreement","Very Strong Agreement","Very Strong Agreement","Very Strong Agreement","Very Strong Agreement","Very Strong Agreement","Very Strong Agreement"
