"","subject","run","block","trial","N","reward","stimulus","cue","isTarget","key_press","rt","acc","debrief","performance","frustration","demand","temporal","effort","age","gender","comments","nfc1","nfc2","nfc3","nfc4","nfc5","nfc6","nfc7","nfc8","nfc9","nfc10","nfc11","nfc12","nfc13","nfc14","nfc15","nfc16","nfc17","nfc18"
"1","A14LCGE6Y8ZLPE:3Q8GYXHFEQ8U39248LZEK2YA7QGC5F","practice",1,1,1,"NA","<p style=""font-size:100px""><b>g</b></p><p style=""position: absolute; top: 30px; right: 30px; text-align:right; font-size:50px"""">N = 1</p>","g",0,69,1666,0,"agree",15,13,16,15,18,"24","male","yes, nice","Moderate Agreement","Moderate Agreement","Strong Disagreement","Neither Agreement nor Disagreement","Moderate Agreement","Slight Agreement","Slight Disagreement","Moderate Agreement","Strong Agreement","Slight Agreement","Slight Disagreement","Moderate Disagreement","Slight Agreement","Neither Agreement nor Disagreement","Slight Agreement","Moderate Agreement","Neither Agreement nor Disagreement","Strong Disagreement"
"2","A14LCGE6Y8ZLPE:3Q8GYXHFEQ8U39248LZEK2YA7QGC5F","practice",1,2,1,"NA","<p style=""font-size:100px""><b>D</b></p><p style=""position: absolute; top: 30px; right: 30px; text-align:right; font-size:50px"""">N = 1</p>","D",0,73,4183,1,"agree",15,13,16,15,18,"24","male","yes, nice","Moderate Agreement","Moderate Agreement","Strong Disagreement","Neither Agreement nor Disagreement","Moderate Agreement","Slight Agreement","Slight Disagreement","Moderate Agreement","Strong Agreement","Slight Agreement","Slight Disagreement","Moderate Disagreement","Slight Agreement","Neither Agreement nor Disagreement","Slight Agreement","Moderate Agreement","Neither Agreement nor Disagreement","Strong Disagreement"
"3","A14LCGE6Y8ZLPE:3Q8GYXHFEQ8U39248LZEK2YA7QGC5F","practice",1,3,1,"NA","<p style=""font-size:100px""><b>D</b></p><p style=""position: absolute; top: 30px; right: 30px; text-align:right; font-size:50px"""">N = 1</p>","D",1,73,1833,0,"agree",15,13,16,15,18,"24","male","yes, nice","Moderate Agreement","Moderate Agreement","Strong Disagreement","Neither Agreement nor Disagreement","Moderate Agreement","Slight Agreement","Slight Disagreement","Moderate Agreement","Strong Agreement","Slight Agreement","Slight Disagreement","Moderate Disagreement","Slight Agreement","Neither Agreement nor Disagreement","Slight Agreement","Moderate Agreement","Neither Agreement nor Disagreement","Strong Disagreement"
"4","A14LCGE6Y8ZLPE:3Q8GYXHFEQ8U39248LZEK2YA7QGC5F","practice",1,4,1,"NA","<p style=""font-size:100px""><b>P</b></p><p style=""position: absolute; top: 30px; right: 30px; text-align:right; font-size:50px"""">N = 1</p>","P",0,69,1217,0,"agree",15,13,16,15,18,"24","male","yes, nice","Moderate Agreement","Moderate Agreement","Strong Disagreement","Neither Agreement nor Disagreement","Moderate Agreement","Slight Agreement","Slight Disagreement","Moderate Agreement","Strong Agreement","Slight Agreement","Slight Disagreement","Moderate Disagreement","Slight Agreement","Neither Agreement nor Disagreement","Slight Agreement","Moderate Agreement","Neither Agreement nor Disagreement","Strong Disagreement"
"5","A14LCGE6Y8ZLPE:3Q8GYXHFEQ8U39248LZEK2YA7QGC5F","practice",1,5,1,"NA","<p style=""font-size:100px""><b>g</b></p><p style=""position: absolute; top: 30px; right: 30px; text-align:right; font-size:50px"""">N = 1</p>","g",0,73,2115,1,"agree",15,13,16,15,18,"24","male","yes, nice","Moderate Agreement","Moderate Agreement","Strong Disagreement","Neither Agreement nor Disagreement","Moderate Agreement","Slight Agreement","Slight Disagreement","Moderate Agreement","Strong Agreement","Slight Agreement","Slight Disagreement","Moderate Disagreement","Slight Agreement","Neither Agreement nor Disagreement","Slight Agreement","Moderate Agreement","Neither Agreement nor Disagreement","Strong Disagreement"
"6","A14LCGE6Y8ZLPE:3Q8GYXHFEQ8U39248LZEK2YA7QGC5F","practice",1,6,1,"NA","<p style=""font-size:100px""><b>p</b></p><p style=""position: absolute; top: 30px; right: 30px; text-align:right; font-size:50px"""">N = 1</p>","p",0,73,3667,1,"agree",15,13,16,15,18,"24","male","yes, nice","Moderate Agreement","Moderate Agreement","Strong Disagreement","Neither Agreement nor Disagreement","Moderate Agreement","Slight Agreement","Slight Disagreement","Moderate Agreement","Strong Agreement","Slight Agreement","Slight Disagreement","Moderate Disagreement","Slight Agreement","Neither Agreement nor Disagreement","Slight Agreement","Moderate Agreement","Neither Agreement nor Disagreement","Strong Disagreement"
"7","A14LCGE6Y8ZLPE:3Q8GYXHFEQ8U39248LZEK2YA7QGC5F","practice",1,7,1,"NA","<p style=""font-size:100px""><b>p</b></p><p style=""position: absolute; top: 30px; right: 30px; text-align:right; font-size:50px"""">N = 1</p>","p",1,69,2835,1,"agree",15,13,16,15,18,"24","male","yes, nice","Moderate Agreement","Moderate Agreement","Strong Disagreement","Neither Agreement nor Disagreement","Moderate Agreement","Slight Agreement","Slight Disagreement","Moderate Agreement","Strong Agreement","Slight Agreement","Slight Disagreement","Moderate Disagreement","Slight Agreement","Neither Agreement nor Disagreement","Slight Agreement","Moderate Agreement","Neither Agreement nor Disagreement","Strong Disagreement"
"8","A14LCGE6Y8ZLPE:3Q8GYXHFEQ8U39248LZEK2YA7QGC5F","practice",1,8,1,"NA","<p style=""font-size:100px""><b>D</b></p><p style=""position: absolute; top: 30px; right: 30px; text-align:right; font-size:50px"""">N = 1</p>","D",0,69,1752,0,"agree",15,13,16,15,18,"24","male","yes, nice","Moderate Agreement","Moderate Agreement","Strong Disagreement","Neither Agreement nor Disagreement","Moderate Agreement","Slight Agreement","Slight Disagreement","Moderate Agreement","Strong Agreement","Slight Agreement","Slight Disagreement","Moderate Disagreement","Slight Agreement","Neither Agreement nor Disagreement","Slight Agreement","Moderate Agreement","Neither Agreement nor Disagreement","Strong Disagreement"
"9","A14LCGE6Y8ZLPE:3Q8GYXHFEQ8U39248LZEK2YA7QGC5F","practice",1,9,1,"NA","<p style=""font-size:100px""><b>b</b></p><p style=""position: absolute; top: 30px; right: 30px; text-align:right; font-size:50px"""">N = 1</p>","b",0,69,1540,0,"agree",15,13,16,15,18,"24","male","yes, nice","Moderate Agreement","Moderate Agreement","Strong Disagreement","Neither Agreement nor Disagreement","Moderate Agreement","Slight Agreement","Slight Disagreement","Moderate Agreement","Strong Agreement","Slight Agreement","Slight Disagreement","Moderate Disagreement","Slight Agreement","Neither Agreement nor Disagreement","Slight Agreement","Moderate Agreement","Neither Agreement nor Disagreement","Strong Disagreement"
"10","A14LCGE6Y8ZLPE:3Q8GYXHFEQ8U39248LZEK2YA7QGC5F","practice",1,10,1,"NA","<p style=""font-size:100px""><b>b</b></p><p style=""position: absolute; top: 30px; right: 30px; text-align:right; font-size:50px"""">N = 1</p>","b",1,69,883,1,"agree",15,13,16,15,18,"24","male","yes, nice","Moderate Agreement","Moderate Agreement","Strong Disagreement","Neither Agreement nor Disagreement","Moderate Agreement","Slight Agreement","Slight Disagreement","Moderate Agreement","Strong Agreement","Slight Agreement","Slight Disagreement","Moderate Disagreement","Slight Agreement","Neither Agreement nor Disagreement","Slight Agreement","Moderate Agreement","Neither Agreement nor Disagreement","Strong Disagreement"
"11","A14LCGE6Y8ZLPE:3Q8GYXHFEQ8U39248LZEK2YA7QGC5F","practice",1,11,1,"NA","<p style=""font-size:100px""><b>t</b></p><p style=""position: absolute; top: 30px; right: 30px; text-align:right; font-size:50px"""">N = 1</p>","t",0,73,1754,1,"agree",15,13,16,15,18,"24","male","yes, nice","Moderate Agreement","Moderate Agreement","Strong Disagreement","Neither Agreement nor Disagreement","Moderate Agreement","Slight Agreement","Slight Disagreement","Moderate Agreement","Strong Agreement","Slight Agreement","Slight Disagreement","Moderate Disagreement","Slight Agreement","Neither Agreement nor Disagreement","Slight Agreement","Moderate Agreement","Neither Agreement nor Disagreement","Strong Disagreement"
"12","A14LCGE6Y8ZLPE:3Q8GYXHFEQ8U39248LZEK2YA7QGC5F","practice",1,12,1,"NA","<p style=""font-size:100px""><b>t</b></p><p style=""position: absolute; top: 30px; right: 30px; text-align:right; font-size:50px"""">N = 1</p>","t",1,73,1851,0,"agree",15,13,16,15,18,"24","male","yes, nice","Moderate Agreement","Moderate Agreement","Strong Disagreement","Neither Agreement nor Disagreement","Moderate Agreement","Slight Agreement","Slight Disagreement","Moderate Agreement","Strong Agreement","Slight Agreement","Slight Disagreement","Moderate Disagreement","Slight Agreement","Neither Agreement nor Disagreement","Slight Agreement","Moderate Agreement","Neither Agreement nor Disagreement","Strong Disagreement"
"13","A14LCGE6Y8ZLPE:3Q8GYXHFEQ8U39248LZEK2YA7QGC5F","practice",2,1,2,"NA","<p style=""font-size:100px""><b>b</b></p><p style=""position: absolute; top: 30px; right: 30px; text-align:right; font-size:50px"""">N = 2</p>","b",0,73,1022,1,"agree",15,13,16,15,18,"24","male","yes, nice","Moderate Agreement","Moderate Agreement","Strong Disagreement","Neither Agreement nor Disagreement","Moderate Agreement","Slight Agreement","Slight Disagreement","Moderate Agreement","Strong Agreement","Slight Agreement","Slight Disagreement","Moderate Disagreement","Slight Agreement","Neither Agreement nor Disagreement","Slight Agreement","Moderate Agreement","Neither Agreement nor Disagreement","Strong Disagreement"
"14","A14LCGE6Y8ZLPE:3Q8GYXHFEQ8U39248LZEK2YA7QGC5F","practice",2,2,2,"NA","<p style=""font-size:100px""><b>v</b></p><p style=""position: absolute; top: 30px; right: 30px; text-align:right; font-size:50px"""">N = 2</p>","v",0,73,1060,1,"agree",15,13,16,15,18,"24","male","yes, nice","Moderate Agreement","Moderate Agreement","Strong Disagreement","Neither Agreement nor Disagreement","Moderate Agreement","Slight Agreement","Slight Disagreement","Moderate Agreement","Strong Agreement","Slight Agreement","Slight Disagreement","Moderate Disagreement","Slight Agreement","Neither Agreement nor Disagreement","Slight Agreement","Moderate Agreement","Neither Agreement nor Disagreement","Strong Disagreement"
"15","A14LCGE6Y8ZLPE:3Q8GYXHFEQ8U39248LZEK2YA7QGC5F","practice",2,3,2,"NA","<p style=""font-size:100px""><b>p</b></p><p style=""position: absolute; top: 30px; right: 30px; text-align:right; font-size:50px"""">N = 2</p>","p",0,73,627,1,"agree",15,13,16,15,18,"24","male","yes, nice","Moderate Agreement","Moderate Agreement","Strong Disagreement","Neither Agreement nor Disagreement","Moderate Agreement","Slight Agreement","Slight Disagreement","Moderate Agreement","Strong Agreement","Slight Agreement","Slight Disagreement","Moderate Disagreement","Slight Agreement","Neither Agreement nor Disagreement","Slight Agreement","Moderate Agreement","Neither Agreement nor Disagreement","Strong Disagreement"
"16","A14LCGE6Y8ZLPE:3Q8GYXHFEQ8U39248LZEK2YA7QGC5F","practice",2,4,2,"NA","<p style=""font-size:100px""><b>p</b></p><p style=""position: absolute; top: 30px; right: 30px; text-align:right; font-size:50px"""">N = 2</p>","p",0,73,690,1,"agree",15,13,16,15,18,"24","male","yes, nice","Moderate Agreement","Moderate Agreement","Strong Disagreement","Neither Agreement nor Disagreement","Moderate Agreement","Slight Agreement","Slight Disagreement","Moderate Agreement","Strong Agreement","Slight Agreement","Slight Disagreement","Moderate Disagreement","Slight Agreement","Neither Agreement nor Disagreement","Slight Agreement","Moderate Agreement","Neither Agreement nor Disagreement","Strong Disagreement"
"17","A14LCGE6Y8ZLPE:3Q8GYXHFEQ8U39248LZEK2YA7QGC5F","practice",2,5,2,"NA","<p style=""font-size:100px""><b>T</b></p><p style=""position: absolute; top: 30px; right: 30px; text-align:right; font-size:50px"""">N = 2</p>","T",0,73,923,1,"agree",15,13,16,15,18,"24","male","yes, nice","Moderate Agreement","Moderate Agreement","Strong Disagreement","Neither Agreement nor Disagreement","Moderate Agreement","Slight Agreement","Slight Disagreement","Moderate Agreement","Strong Agreement","Slight Agreement","Slight Disagreement","Moderate Disagreement","Slight Agreement","Neither Agreement nor Disagreement","Slight Agreement","Moderate Agreement","Neither Agreement nor Disagreement","Strong Disagreement"
"18","A14LCGE6Y8ZLPE:3Q8GYXHFEQ8U39248LZEK2YA7QGC5F","practice",2,6,2,"NA","<p style=""font-size:100px""><b>d</b></p><p style=""position: absolute; top: 30px; right: 30px; text-align:right; font-size:50px"""">N = 2</p>","d",0,69,856,0,"agree",15,13,16,15,18,"24","male","yes, nice","Moderate Agreement","Moderate Agreement","Strong Disagreement","Neither Agreement nor Disagreement","Moderate Agreement","Slight Agreement","Slight Disagreement","Moderate Agreement","Strong Agreement","Slight Agreement","Slight Disagreement","Moderate Disagreement","Slight Agreement","Neither Agreement nor Disagreement","Slight Agreement","Moderate Agreement","Neither Agreement nor Disagreement","Strong Disagreement"
"19","A14LCGE6Y8ZLPE:3Q8GYXHFEQ8U39248LZEK2YA7QGC5F","practice",2,7,2,"NA","<p style=""font-size:100px""><b>T</b></p><p style=""position: absolute; top: 30px; right: 30px; text-align:right; font-size:50px"""">N = 2</p>","T",1,73,947,0,"agree",15,13,16,15,18,"24","male","yes, nice","Moderate Agreement","Moderate Agreement","Strong Disagreement","Neither Agreement nor Disagreement","Moderate Agreement","Slight Agreement","Slight Disagreement","Moderate Agreement","Strong Agreement","Slight Agreement","Slight Disagreement","Moderate Disagreement","Slight Agreement","Neither Agreement nor Disagreement","Slight Agreement","Moderate Agreement","Neither Agreement nor Disagreement","Strong Disagreement"
"20","A14LCGE6Y8ZLPE:3Q8GYXHFEQ8U39248LZEK2YA7QGC5F","practice",2,8,2,"NA","<p style=""font-size:100px""><b>d</b></p><p style=""position: absolute; top: 30px; right: 30px; text-align:right; font-size:50px"""">N = 2</p>","d",1,69,1218,1,"agree",15,13,16,15,18,"24","male","yes, nice","Moderate Agreement","Moderate Agreement","Strong Disagreement","Neither Agreement nor Disagreement","Moderate Agreement","Slight Agreement","Slight Disagreement","Moderate Agreement","Strong Agreement","Slight Agreement","Slight Disagreement","Moderate Disagreement","Slight Agreement","Neither Agreement nor Disagreement","Slight Agreement","Moderate Agreement","Neither Agreement nor Disagreement","Strong Disagreement"
"21","A14LCGE6Y8ZLPE:3Q8GYXHFEQ8U39248LZEK2YA7QGC5F","practice",2,9,2,"NA","<p style=""font-size:100px""><b>P</b></p><p style=""position: absolute; top: 30px; right: 30px; text-align:right; font-size:50px"""">N = 2</p>","P",0,73,827,1,"agree",15,13,16,15,18,"24","male","yes, nice","Moderate Agreement","Moderate Agreement","Strong Disagreement","Neither Agreement nor Disagreement","Moderate Agreement","Slight Agreement","Slight Disagreement","Moderate Agreement","Strong Agreement","Slight Agreement","Slight Disagreement","Moderate Disagreement","Slight Agreement","Neither Agreement nor Disagreement","Slight Agreement","Moderate Agreement","Neither Agreement nor Disagreement","Strong Disagreement"
"22","A14LCGE6Y8ZLPE:3Q8GYXHFEQ8U39248LZEK2YA7QGC5F","practice",2,10,2,"NA","<p style=""font-size:100px""><b>d</b></p><p style=""position: absolute; top: 30px; right: 30px; text-align:right; font-size:50px"""">N = 2</p>","d",1,69,874,1,"agree",15,13,16,15,18,"24","male","yes, nice","Moderate Agreement","Moderate Agreement","Strong Disagreement","Neither Agreement nor Disagreement","Moderate Agreement","Slight Agreement","Slight Disagreement","Moderate Agreement","Strong Agreement","Slight Agreement","Slight Disagreement","Moderate Disagreement","Slight Agreement","Neither Agreement nor Disagreement","Slight Agreement","Moderate Agreement","Neither Agreement nor Disagreement","Strong Disagreement"
"23","A14LCGE6Y8ZLPE:3Q8GYXHFEQ8U39248LZEK2YA7QGC5F","practice",2,11,2,"NA","<p style=""font-size:100px""><b>P</b></p><p style=""position: absolute; top: 30px; right: 30px; text-align:right; font-size:50px"""">N = 2</p>","P",1,73,481,0,"agree",15,13,16,15,18,"24","male","yes, nice","Moderate Agreement","Moderate Agreement","Strong Disagreement","Neither Agreement nor Disagreement","Moderate Agreement","Slight Agreement","Slight Disagreement","Moderate Agreement","Strong Agreement","Slight Agreement","Slight Disagreement","Moderate Disagreement","Slight Agreement","Neither Agreement nor Disagreement","Slight Agreement","Moderate Agreement","Neither Agreement nor Disagreement","Strong Disagreement"
"24","A14LCGE6Y8ZLPE:3Q8GYXHFEQ8U39248LZEK2YA7QGC5F","practice",2,12,2,"NA","<p style=""font-size:100px""><b>T</b></p><p style=""position: absolute; top: 30px; right: 30px; text-align:right; font-size:50px"""">N = 2</p>","T",0,69,545,0,"agree",15,13,16,15,18,"24","male","yes, nice","Moderate Agreement","Moderate Agreement","Strong Disagreement","Neither Agreement nor Disagreement","Moderate Agreement","Slight Agreement","Slight Disagreement","Moderate Agreement","Strong Agreement","Slight Agreement","Slight Disagreement","Moderate Disagreement","Slight Agreement","Neither Agreement nor Disagreement","Slight Agreement","Moderate Agreement","Neither Agreement nor Disagreement","Strong Disagreement"
"25","A14LCGE6Y8ZLPE:3Q8GYXHFEQ8U39248LZEK2YA7QGC5F","practice",3,1,3,"NA","<p style=""font-size:100px""><b>G</b></p><p style=""position: absolute; top: 30px; right: 30px; text-align:right; font-size:50px"""">N = 3</p>","G",0,73,951,1,"agree",15,13,16,15,18,"24","male","yes, nice","Moderate Agreement","Moderate Agreement","Strong Disagreement","Neither Agreement nor Disagreement","Moderate Agreement","Slight Agreement","Slight Disagreement","Moderate Agreement","Strong Agreement","Slight Agreement","Slight Disagreement","Moderate Disagreement","Slight Agreement","Neither Agreement nor Disagreement","Slight Agreement","Moderate Agreement","Neither Agreement nor Disagreement","Strong Disagreement"
"26","A14LCGE6Y8ZLPE:3Q8GYXHFEQ8U39248LZEK2YA7QGC5F","practice",3,2,3,"NA","<p style=""font-size:100px""><b>b</b></p><p style=""position: absolute; top: 30px; right: 30px; text-align:right; font-size:50px"""">N = 3</p>","b",0,73,570,1,"agree",15,13,16,15,18,"24","male","yes, nice","Moderate Agreement","Moderate Agreement","Strong Disagreement","Neither Agreement nor Disagreement","Moderate Agreement","Slight Agreement","Slight Disagreement","Moderate Agreement","Strong Agreement","Slight Agreement","Slight Disagreement","Moderate Disagreement","Slight Agreement","Neither Agreement nor Disagreement","Slight Agreement","Moderate Agreement","Neither Agreement nor Disagreement","Strong Disagreement"
"27","A14LCGE6Y8ZLPE:3Q8GYXHFEQ8U39248LZEK2YA7QGC5F","practice",3,3,3,"NA","<p style=""font-size:100px""><b>d</b></p><p style=""position: absolute; top: 30px; right: 30px; text-align:right; font-size:50px"""">N = 3</p>","d",0,73,476,1,"agree",15,13,16,15,18,"24","male","yes, nice","Moderate Agreement","Moderate Agreement","Strong Disagreement","Neither Agreement nor Disagreement","Moderate Agreement","Slight Agreement","Slight Disagreement","Moderate Agreement","Strong Agreement","Slight Agreement","Slight Disagreement","Moderate Disagreement","Slight Agreement","Neither Agreement nor Disagreement","Slight Agreement","Moderate Agreement","Neither Agreement nor Disagreement","Strong Disagreement"
"28","A14LCGE6Y8ZLPE:3Q8GYXHFEQ8U39248LZEK2YA7QGC5F","practice",3,4,3,"NA","<p style=""font-size:100px""><b>t</b></p><p style=""position: absolute; top: 30px; right: 30px; text-align:right; font-size:50px"""">N = 3</p>","t",0,73,738,1,"agree",15,13,16,15,18,"24","male","yes, nice","Moderate Agreement","Moderate Agreement","Strong Disagreement","Neither Agreement nor Disagreement","Moderate Agreement","Slight Agreement","Slight Disagreement","Moderate Agreement","Strong Agreement","Slight Agreement","Slight Disagreement","Moderate Disagreement","Slight Agreement","Neither Agreement nor Disagreement","Slight Agreement","Moderate Agreement","Neither Agreement nor Disagreement","Strong Disagreement"
"29","A14LCGE6Y8ZLPE:3Q8GYXHFEQ8U39248LZEK2YA7QGC5F","practice",3,5,3,"NA","<p style=""font-size:100px""><b>b</b></p><p style=""position: absolute; top: 30px; right: 30px; text-align:right; font-size:50px"""">N = 3</p>","b",1,69,720,1,"agree",15,13,16,15,18,"24","male","yes, nice","Moderate Agreement","Moderate Agreement","Strong Disagreement","Neither Agreement nor Disagreement","Moderate Agreement","Slight Agreement","Slight Disagreement","Moderate Agreement","Strong Agreement","Slight Agreement","Slight Disagreement","Moderate Disagreement","Slight Agreement","Neither Agreement nor Disagreement","Slight Agreement","Moderate Agreement","Neither Agreement nor Disagreement","Strong Disagreement"
"30","A14LCGE6Y8ZLPE:3Q8GYXHFEQ8U39248LZEK2YA7QGC5F","practice",3,6,3,"NA","<p style=""font-size:100px""><b>d</b></p><p style=""position: absolute; top: 30px; right: 30px; text-align:right; font-size:50px"""">N = 3</p>","d",1,69,923,1,"agree",15,13,16,15,18,"24","male","yes, nice","Moderate Agreement","Moderate Agreement","Strong Disagreement","Neither Agreement nor Disagreement","Moderate Agreement","Slight Agreement","Slight Disagreement","Moderate Agreement","Strong Agreement","Slight Agreement","Slight Disagreement","Moderate Disagreement","Slight Agreement","Neither Agreement nor Disagreement","Slight Agreement","Moderate Agreement","Neither Agreement nor Disagreement","Strong Disagreement"
"31","A14LCGE6Y8ZLPE:3Q8GYXHFEQ8U39248LZEK2YA7QGC5F","practice",3,7,3,"NA","<p style=""font-size:100px""><b>p</b></p><p style=""position: absolute; top: 30px; right: 30px; text-align:right; font-size:50px"""">N = 3</p>","p",0,73,511,1,"agree",15,13,16,15,18,"24","male","yes, nice","Moderate Agreement","Moderate Agreement","Strong Disagreement","Neither Agreement nor Disagreement","Moderate Agreement","Slight Agreement","Slight Disagreement","Moderate Agreement","Strong Agreement","Slight Agreement","Slight Disagreement","Moderate Disagreement","Slight Agreement","Neither Agreement nor Disagreement","Slight Agreement","Moderate Agreement","Neither Agreement nor Disagreement","Strong Disagreement"
"32","A14LCGE6Y8ZLPE:3Q8GYXHFEQ8U39248LZEK2YA7QGC5F","practice",3,8,3,"NA","<p style=""font-size:100px""><b>P</b></p><p style=""position: absolute; top: 30px; right: 30px; text-align:right; font-size:50px"""">N = 3</p>","P",0,73,590,1,"agree",15,13,16,15,18,"24","male","yes, nice","Moderate Agreement","Moderate Agreement","Strong Disagreement","Neither Agreement nor Disagreement","Moderate Agreement","Slight Agreement","Slight Disagreement","Moderate Agreement","Strong Agreement","Slight Agreement","Slight Disagreement","Moderate Disagreement","Slight Agreement","Neither Agreement nor Disagreement","Slight Agreement","Moderate Agreement","Neither Agreement nor Disagreement","Strong Disagreement"
"33","A14LCGE6Y8ZLPE:3Q8GYXHFEQ8U39248LZEK2YA7QGC5F","practice",3,9,3,"NA","<p style=""font-size:100px""><b>d</b></p><p style=""position: absolute; top: 30px; right: 30px; text-align:right; font-size:50px"""">N = 3</p>","d",1,73,691,0,"agree",15,13,16,15,18,"24","male","yes, nice","Moderate Agreement","Moderate Agreement","Strong Disagreement","Neither Agreement nor Disagreement","Moderate Agreement","Slight Agreement","Slight Disagreement","Moderate Agreement","Strong Agreement","Slight Agreement","Slight Disagreement","Moderate Disagreement","Slight Agreement","Neither Agreement nor Disagreement","Slight Agreement","Moderate Agreement","Neither Agreement nor Disagreement","Strong Disagreement"
"34","A14LCGE6Y8ZLPE:3Q8GYXHFEQ8U39248LZEK2YA7QGC5F","practice",3,10,3,"NA","<p style=""font-size:100px""><b>D</b></p><p style=""position: absolute; top: 30px; right: 30px; text-align:right; font-size:50px"""">N = 3</p>","D",0,73,1141,1,"agree",15,13,16,15,18,"24","male","yes, nice","Moderate Agreement","Moderate Agreement","Strong Disagreement","Neither Agreement nor Disagreement","Moderate Agreement","Slight Agreement","Slight Disagreement","Moderate Agreement","Strong Agreement","Slight Agreement","Slight Disagreement","Moderate Disagreement","Slight Agreement","Neither Agreement nor Disagreement","Slight Agreement","Moderate Agreement","Neither Agreement nor Disagreement","Strong Disagreement"
"35","A14LCGE6Y8ZLPE:3Q8GYXHFEQ8U39248LZEK2YA7QGC5F","practice",3,11,3,"NA","<p style=""font-size:100px""><b>P</b></p><p style=""position: absolute; top: 30px; right: 30px; text-align:right; font-size:50px"""">N = 3</p>","P",1,69,729,1,"agree",15,13,16,15,18,"24","male","yes, nice","Moderate Agreement","Moderate Agreement","Strong Disagreement","Neither Agreement nor Disagreement","Moderate Agreement","Slight Agreement","Slight Disagreement","Moderate Agreement","Strong Agreement","Slight Agreement","Slight Disagreement","Moderate Disagreement","Slight Agreement","Neither Agreement nor Disagreement","Slight Agreement","Moderate Agreement","Neither Agreement nor Disagreement","Strong Disagreement"
"36","A14LCGE6Y8ZLPE:3Q8GYXHFEQ8U39248LZEK2YA7QGC5F","practice",3,12,3,"NA","<p style=""font-size:100px""><b>T</b></p><p style=""position: absolute; top: 30px; right: 30px; text-align:right; font-size:50px"""">N = 3</p>","T",0,73,307,1,"agree",15,13,16,15,18,"24","male","yes, nice","Moderate Agreement","Moderate Agreement","Strong Disagreement","Neither Agreement nor Disagreement","Moderate Agreement","Slight Agreement","Slight Disagreement","Moderate Agreement","Strong Agreement","Slight Agreement","Slight Disagreement","Moderate Disagreement","Slight Agreement","Neither Agreement nor Disagreement","Slight Agreement","Moderate Agreement","Neither Agreement nor Disagreement","Strong Disagreement"
"37","A14LCGE6Y8ZLPE:3Q8GYXHFEQ8U39248LZEK2YA7QGC5F","1",1,1,2,"5","<p style=""font-size:100px""><b>b</b></p><p style=""position: absolute; top: 30px; right: 30px; text-align:right; font-size:50px"""">N = 2</p>","b",0,69,968,0,"agree",15,13,16,15,18,"24","male","yes, nice","Moderate Agreement","Moderate Agreement","Strong Disagreement","Neither Agreement nor Disagreement","Moderate Agreement","Slight Agreement","Slight Disagreement","Moderate Agreement","Strong Agreement","Slight Agreement","Slight Disagreement","Moderate Disagreement","Slight Agreement","Neither Agreement nor Disagreement","Slight Agreement","Moderate Agreement","Neither Agreement nor Disagreement","Strong Disagreement"
"38","A14LCGE6Y8ZLPE:3Q8GYXHFEQ8U39248LZEK2YA7QGC5F","1",1,2,2,"5","<p style=""font-size:100px""><b>d</b></p><p style=""position: absolute; top: 30px; right: 30px; text-align:right; font-size:50px"""">N = 2</p>","d",0,73,667,1,"agree",15,13,16,15,18,"24","male","yes, nice","Moderate Agreement","Moderate Agreement","Strong Disagreement","Neither Agreement nor Disagreement","Moderate Agreement","Slight Agreement","Slight Disagreement","Moderate Agreement","Strong Agreement","Slight Agreement","Slight Disagreement","Moderate Disagreement","Slight Agreement","Neither Agreement nor Disagreement","Slight Agreement","Moderate Agreement","Neither Agreement nor Disagreement","Strong Disagreement"
"39","A14LCGE6Y8ZLPE:3Q8GYXHFEQ8U39248LZEK2YA7QGC5F","1",1,3,2,"5","<p style=""font-size:100px""><b>b</b></p><p style=""position: absolute; top: 30px; right: 30px; text-align:right; font-size:50px"""">N = 2</p>","b",0,73,799,1,"agree",15,13,16,15,18,"24","male","yes, nice","Moderate Agreement","Moderate Agreement","Strong Disagreement","Neither Agreement nor Disagreement","Moderate Agreement","Slight Agreement","Slight Disagreement","Moderate Agreement","Strong Agreement","Slight Agreement","Slight Disagreement","Moderate Disagreement","Slight Agreement","Neither Agreement nor Disagreement","Slight Agreement","Moderate Agreement","Neither Agreement nor Disagreement","Strong Disagreement"
"40","A14LCGE6Y8ZLPE:3Q8GYXHFEQ8U39248LZEK2YA7QGC5F","1",1,4,2,"5","<p style=""font-size:100px""><b>b</b></p><p style=""position: absolute; top: 30px; right: 30px; text-align:right; font-size:50px"""">N = 2</p>","b",0,73,530,1,"agree",15,13,16,15,18,"24","male","yes, nice","Moderate Agreement","Moderate Agreement","Strong Disagreement","Neither Agreement nor Disagreement","Moderate Agreement","Slight Agreement","Slight Disagreement","Moderate Agreement","Strong Agreement","Slight Agreement","Slight Disagreement","Moderate Disagreement","Slight Agreement","Neither Agreement nor Disagreement","Slight Agreement","Moderate Agreement","Neither Agreement nor Disagreement","Strong Disagreement"
"41","A14LCGE6Y8ZLPE:3Q8GYXHFEQ8U39248LZEK2YA7QGC5F","1",1,5,2,"5","<p style=""font-size:100px""><b>V</b></p><p style=""position: absolute; top: 30px; right: 30px; text-align:right; font-size:50px"""">N = 2</p>","V",0,73,573,1,"agree",15,13,16,15,18,"24","male","yes, nice","Moderate Agreement","Moderate Agreement","Strong Disagreement","Neither Agreement nor Disagreement","Moderate Agreement","Slight Agreement","Slight Disagreement","Moderate Agreement","Strong Agreement","Slight Agreement","Slight Disagreement","Moderate Disagreement","Slight Agreement","Neither Agreement nor Disagreement","Slight Agreement","Moderate Agreement","Neither Agreement nor Disagreement","Strong Disagreement"
"42","A14LCGE6Y8ZLPE:3Q8GYXHFEQ8U39248LZEK2YA7QGC5F","1",1,6,2,"5","<p style=""font-size:100px""><b>v</b></p><p style=""position: absolute; top: 30px; right: 30px; text-align:right; font-size:50px"""">N = 2</p>","v",0,73,479,1,"agree",15,13,16,15,18,"24","male","yes, nice","Moderate Agreement","Moderate Agreement","Strong Disagreement","Neither Agreement nor Disagreement","Moderate Agreement","Slight Agreement","Slight Disagreement","Moderate Agreement","Strong Agreement","Slight Agreement","Slight Disagreement","Moderate Disagreement","Slight Agreement","Neither Agreement nor Disagreement","Slight Agreement","Moderate Agreement","Neither Agreement nor Disagreement","Strong Disagreement"
"43","A14LCGE6Y8ZLPE:3Q8GYXHFEQ8U39248LZEK2YA7QGC5F","1",1,7,2,"5","<p style=""font-size:100px""><b>V</b></p><p style=""position: absolute; top: 30px; right: 30px; text-align:right; font-size:50px"""">N = 2</p>","V",0,69,405,0,"agree",15,13,16,15,18,"24","male","yes, nice","Moderate Agreement","Moderate Agreement","Strong Disagreement","Neither Agreement nor Disagreement","Moderate Agreement","Slight Agreement","Slight Disagreement","Moderate Agreement","Strong Agreement","Slight Agreement","Slight Disagreement","Moderate Disagreement","Slight Agreement","Neither Agreement nor Disagreement","Slight Agreement","Moderate Agreement","Neither Agreement nor Disagreement","Strong Disagreement"
"44","A14LCGE6Y8ZLPE:3Q8GYXHFEQ8U39248LZEK2YA7QGC5F","1",1,8,2,"5","<p style=""font-size:100px""><b>v</b></p><p style=""position: absolute; top: 30px; right: 30px; text-align:right; font-size:50px"""">N = 2</p>","v",0,73,175,1,"agree",15,13,16,15,18,"24","male","yes, nice","Moderate Agreement","Moderate Agreement","Strong Disagreement","Neither Agreement nor Disagreement","Moderate Agreement","Slight Agreement","Slight Disagreement","Moderate Agreement","Strong Agreement","Slight Agreement","Slight Disagreement","Moderate Disagreement","Slight Agreement","Neither Agreement nor Disagreement","Slight Agreement","Moderate Agreement","Neither Agreement nor Disagreement","Strong Disagreement"
"45","A14LCGE6Y8ZLPE:3Q8GYXHFEQ8U39248LZEK2YA7QGC5F","1",1,9,2,"5","<p style=""font-size:100px""><b>V</b></p><p style=""position: absolute; top: 30px; right: 30px; text-align:right; font-size:50px"""">N = 2</p>","V",0,69,259,0,"agree",15,13,16,15,18,"24","male","yes, nice","Moderate Agreement","Moderate Agreement","Strong Disagreement","Neither Agreement nor Disagreement","Moderate Agreement","Slight Agreement","Slight Disagreement","Moderate Agreement","Strong Agreement","Slight Agreement","Slight Disagreement","Moderate Disagreement","Slight Agreement","Neither Agreement nor Disagreement","Slight Agreement","Moderate Agreement","Neither Agreement nor Disagreement","Strong Disagreement"
"46","A14LCGE6Y8ZLPE:3Q8GYXHFEQ8U39248LZEK2YA7QGC5F","1",1,10,2,"5","<p style=""font-size:100px""><b>d</b></p><p style=""position: absolute; top: 30px; right: 30px; text-align:right; font-size:50px"""">N = 2</p>","d",0,73,486,1,"agree",15,13,16,15,18,"24","male","yes, nice","Moderate Agreement","Moderate Agreement","Strong Disagreement","Neither Agreement nor Disagreement","Moderate Agreement","Slight Agreement","Slight Disagreement","Moderate Agreement","Strong Agreement","Slight Agreement","Slight Disagreement","Moderate Disagreement","Slight Agreement","Neither Agreement nor Disagreement","Slight Agreement","Moderate Agreement","Neither Agreement nor Disagreement","Strong Disagreement"
"47","A14LCGE6Y8ZLPE:3Q8GYXHFEQ8U39248LZEK2YA7QGC5F","1",1,11,2,"5","<p style=""font-size:100px""><b>g</b></p><p style=""position: absolute; top: 30px; right: 30px; text-align:right; font-size:50px"""">N = 2</p>","g",0,73,626,1,"agree",15,13,16,15,18,"24","male","yes, nice","Moderate Agreement","Moderate Agreement","Strong Disagreement","Neither Agreement nor Disagreement","Moderate Agreement","Slight Agreement","Slight Disagreement","Moderate Agreement","Strong Agreement","Slight Agreement","Slight Disagreement","Moderate Disagreement","Slight Agreement","Neither Agreement nor Disagreement","Slight Agreement","Moderate Agreement","Neither Agreement nor Disagreement","Strong Disagreement"
"48","A14LCGE6Y8ZLPE:3Q8GYXHFEQ8U39248LZEK2YA7QGC5F","1",1,12,2,"5","<p style=""font-size:100px""><b>g</b></p><p style=""position: absolute; top: 30px; right: 30px; text-align:right; font-size:50px"""">N = 2</p>","g",0,73,830,1,"agree",15,13,16,15,18,"24","male","yes, nice","Moderate Agreement","Moderate Agreement","Strong Disagreement","Neither Agreement nor Disagreement","Moderate Agreement","Slight Agreement","Slight Disagreement","Moderate Agreement","Strong Agreement","Slight Agreement","Slight Disagreement","Moderate Disagreement","Slight Agreement","Neither Agreement nor Disagreement","Slight Agreement","Moderate Agreement","Neither Agreement nor Disagreement","Strong Disagreement"
"49","A14LCGE6Y8ZLPE:3Q8GYXHFEQ8U39248LZEK2YA7QGC5F","1",2,1,1,"5","<p style=""font-size:100px""><b>G</b></p><p style=""position: absolute; top: 30px; right: 30px; text-align:right; font-size:50px"""">N = 1</p>","G",0,NA,NA,0,"agree",15,12,18,14,17,"24","male","yes, nice","Moderate Agreement","Moderate Agreement","Strong Disagreement","Neither Agreement nor Disagreement","Moderate Agreement","Slight Agreement","Slight Disagreement","Moderate Agreement","Strong Agreement","Slight Agreement","Slight Disagreement","Moderate Disagreement","Slight Agreement","Neither Agreement nor Disagreement","Slight Agreement","Moderate Agreement","Neither Agreement nor Disagreement","Strong Disagreement"
"50","A14LCGE6Y8ZLPE:3Q8GYXHFEQ8U39248LZEK2YA7QGC5F","1",2,2,1,"5","<p style=""font-size:100px""><b>p</b></p><p style=""position: absolute; top: 30px; right: 30px; text-align:right; font-size:50px"""">N = 1</p>","p",0,NA,NA,0,"agree",15,12,18,14,17,"24","male","yes, nice","Moderate Agreement","Moderate Agreement","Strong Disagreement","Neither Agreement nor Disagreement","Moderate Agreement","Slight Agreement","Slight Disagreement","Moderate Agreement","Strong Agreement","Slight Agreement","Slight Disagreement","Moderate Disagreement","Slight Agreement","Neither Agreement nor Disagreement","Slight Agreement","Moderate Agreement","Neither Agreement nor Disagreement","Strong Disagreement"
"51","A14LCGE6Y8ZLPE:3Q8GYXHFEQ8U39248LZEK2YA7QGC5F","1",2,3,1,"5","<p style=""font-size:100px""><b>p</b></p><p style=""position: absolute; top: 30px; right: 30px; text-align:right; font-size:50px"""">N = 1</p>","p",0,NA,NA,0,"agree",15,12,18,14,17,"24","male","yes, nice","Moderate Agreement","Moderate Agreement","Strong Disagreement","Neither Agreement nor Disagreement","Moderate Agreement","Slight Agreement","Slight Disagreement","Moderate Agreement","Strong Agreement","Slight Agreement","Slight Disagreement","Moderate Disagreement","Slight Agreement","Neither Agreement nor Disagreement","Slight Agreement","Moderate Agreement","Neither Agreement nor Disagreement","Strong Disagreement"
"52","A14LCGE6Y8ZLPE:3Q8GYXHFEQ8U39248LZEK2YA7QGC5F","1",2,4,1,"5","<p style=""font-size:100px""><b>T</b></p><p style=""position: absolute; top: 30px; right: 30px; text-align:right; font-size:50px"""">N = 1</p>","T",0,73,464,1,"agree",15,12,18,14,17,"24","male","yes, nice","Moderate Agreement","Moderate Agreement","Strong Disagreement","Neither Agreement nor Disagreement","Moderate Agreement","Slight Agreement","Slight Disagreement","Moderate Agreement","Strong Agreement","Slight Agreement","Slight Disagreement","Moderate Disagreement","Slight Agreement","Neither Agreement nor Disagreement","Slight Agreement","Moderate Agreement","Neither Agreement nor Disagreement","Strong Disagreement"
"53","A14LCGE6Y8ZLPE:3Q8GYXHFEQ8U39248LZEK2YA7QGC5F","1",2,5,1,"5","<p style=""font-size:100px""><b>T</b></p><p style=""position: absolute; top: 30px; right: 30px; text-align:right; font-size:50px"""">N = 1</p>","T",0,69,211,0,"agree",15,12,18,14,17,"24","male","yes, nice","Moderate Agreement","Moderate Agreement","Strong Disagreement","Neither Agreement nor Disagreement","Moderate Agreement","Slight Agreement","Slight Disagreement","Moderate Agreement","Strong Agreement","Slight Agreement","Slight Disagreement","Moderate Disagreement","Slight Agreement","Neither Agreement nor Disagreement","Slight Agreement","Moderate Agreement","Neither Agreement nor Disagreement","Strong Disagreement"
"54","A14LCGE6Y8ZLPE:3Q8GYXHFEQ8U39248LZEK2YA7QGC5F","1",2,6,1,"5","<p style=""font-size:100px""><b>P</b></p><p style=""position: absolute; top: 30px; right: 30px; text-align:right; font-size:50px"""">N = 1</p>","P",0,69,605,0,"agree",15,12,18,14,17,"24","male","yes, nice","Moderate Agreement","Moderate Agreement","Strong Disagreement","Neither Agreement nor Disagreement","Moderate Agreement","Slight Agreement","Slight Disagreement","Moderate Agreement","Strong Agreement","Slight Agreement","Slight Disagreement","Moderate Disagreement","Slight Agreement","Neither Agreement nor Disagreement","Slight Agreement","Moderate Agreement","Neither Agreement nor Disagreement","Strong Disagreement"
"55","A14LCGE6Y8ZLPE:3Q8GYXHFEQ8U39248LZEK2YA7QGC5F","1",2,7,1,"5","<p style=""font-size:100px""><b>P</b></p><p style=""position: absolute; top: 30px; right: 30px; text-align:right; font-size:50px"""">N = 1</p>","P",0,73,71,1,"agree",15,12,18,14,17,"24","male","yes, nice","Moderate Agreement","Moderate Agreement","Strong Disagreement","Neither Agreement nor Disagreement","Moderate Agreement","Slight Agreement","Slight Disagreement","Moderate Agreement","Strong Agreement","Slight Agreement","Slight Disagreement","Moderate Disagreement","Slight Agreement","Neither Agreement nor Disagreement","Slight Agreement","Moderate Agreement","Neither Agreement nor Disagreement","Strong Disagreement"
"56","A14LCGE6Y8ZLPE:3Q8GYXHFEQ8U39248LZEK2YA7QGC5F","1",2,8,1,"5","<p style=""font-size:100px""><b>V</b></p><p style=""position: absolute; top: 30px; right: 30px; text-align:right; font-size:50px"""">N = 1</p>","V",0,NA,NA,0,"agree",15,12,18,14,17,"24","male","yes, nice","Moderate Agreement","Moderate Agreement","Strong Disagreement","Neither Agreement nor Disagreement","Moderate Agreement","Slight Agreement","Slight Disagreement","Moderate Agreement","Strong Agreement","Slight Agreement","Slight Disagreement","Moderate Disagreement","Slight Agreement","Neither Agreement nor Disagreement","Slight Agreement","Moderate Agreement","Neither Agreement nor Disagreement","Strong Disagreement"
"57","A14LCGE6Y8ZLPE:3Q8GYXHFEQ8U39248LZEK2YA7QGC5F","1",2,9,1,"5","<p style=""font-size:100px""><b>V</b></p><p style=""position: absolute; top: 30px; right: 30px; text-align:right; font-size:50px"""">N = 1</p>","V",0,73,339,1,"agree",15,12,18,14,17,"24","male","yes, nice","Moderate Agreement","Moderate Agreement","Strong Disagreement","Neither Agreement nor Disagreement","Moderate Agreement","Slight Agreement","Slight Disagreement","Moderate Agreement","Strong Agreement","Slight Agreement","Slight Disagreement","Moderate Disagreement","Slight Agreement","Neither Agreement nor Disagreement","Slight Agreement","Moderate Agreement","Neither Agreement nor Disagreement","Strong Disagreement"
"58","A14LCGE6Y8ZLPE:3Q8GYXHFEQ8U39248LZEK2YA7QGC5F","1",2,10,1,"5","<p style=""font-size:100px""><b>b</b></p><p style=""position: absolute; top: 30px; right: 30px; text-align:right; font-size:50px"""">N = 1</p>","b",0,73,473,1,"agree",15,12,18,14,17,"24","male","yes, nice","Moderate Agreement","Moderate Agreement","Strong Disagreement","Neither Agreement nor Disagreement","Moderate Agreement","Slight Agreement","Slight Disagreement","Moderate Agreement","Strong Agreement","Slight Agreement","Slight Disagreement","Moderate Disagreement","Slight Agreement","Neither Agreement nor Disagreement","Slight Agreement","Moderate Agreement","Neither Agreement nor Disagreement","Strong Disagreement"
"59","A14LCGE6Y8ZLPE:3Q8GYXHFEQ8U39248LZEK2YA7QGC5F","1",2,11,1,"5","<p style=""font-size:100px""><b>v</b></p><p style=""position: absolute; top: 30px; right: 30px; text-align:right; font-size:50px"""">N = 1</p>","v",0,NA,NA,0,"agree",15,12,18,14,17,"24","male","yes, nice","Moderate Agreement","Moderate Agreement","Strong Disagreement","Neither Agreement nor Disagreement","Moderate Agreement","Slight Agreement","Slight Disagreement","Moderate Agreement","Strong Agreement","Slight Agreement","Slight Disagreement","Moderate Disagreement","Slight Agreement","Neither Agreement nor Disagreement","Slight Agreement","Moderate Agreement","Neither Agreement nor Disagreement","Strong Disagreement"
"60","A14LCGE6Y8ZLPE:3Q8GYXHFEQ8U39248LZEK2YA7QGC5F","1",2,12,1,"5","<p style=""font-size:100px""><b>b</b></p><p style=""position: absolute; top: 30px; right: 30px; text-align:right; font-size:50px"""">N = 1</p>","b",0,73,615,1,"agree",15,12,18,14,17,"24","male","yes, nice","Moderate Agreement","Moderate Agreement","Strong Disagreement","Neither Agreement nor Disagreement","Moderate Agreement","Slight Agreement","Slight Disagreement","Moderate Agreement","Strong Agreement","Slight Agreement","Slight Disagreement","Moderate Disagreement","Slight Agreement","Neither Agreement nor Disagreement","Slight Agreement","Moderate Agreement","Neither Agreement nor Disagreement","Strong Disagreement"
"61","A14LCGE6Y8ZLPE:3Q8GYXHFEQ8U39248LZEK2YA7QGC5F","1",3,1,3,"5","<p style=""font-size:100px""><b>D</b></p><p style=""position: absolute; top: 30px; right: 30px; text-align:right; font-size:50px"""">N = 3</p>","D",0,73,446,1,"agree",14,18,18,15,18,"24","male","yes, nice","Moderate Agreement","Moderate Agreement","Strong Disagreement","Neither Agreement nor Disagreement","Moderate Agreement","Slight Agreement","Slight Disagreement","Moderate Agreement","Strong Agreement","Slight Agreement","Slight Disagreement","Moderate Disagreement","Slight Agreement","Neither Agreement nor Disagreement","Slight Agreement","Moderate Agreement","Neither Agreement nor Disagreement","Strong Disagreement"
"62","A14LCGE6Y8ZLPE:3Q8GYXHFEQ8U39248LZEK2YA7QGC5F","1",3,2,3,"5","<p style=""font-size:100px""><b>d</b></p><p style=""position: absolute; top: 30px; right: 30px; text-align:right; font-size:50px"""">N = 3</p>","d",0,73,585,1,"agree",14,18,18,15,18,"24","male","yes, nice","Moderate Agreement","Moderate Agreement","Strong Disagreement","Neither Agreement nor Disagreement","Moderate Agreement","Slight Agreement","Slight Disagreement","Moderate Agreement","Strong Agreement","Slight Agreement","Slight Disagreement","Moderate Disagreement","Slight Agreement","Neither Agreement nor Disagreement","Slight Agreement","Moderate Agreement","Neither Agreement nor Disagreement","Strong Disagreement"
"63","A14LCGE6Y8ZLPE:3Q8GYXHFEQ8U39248LZEK2YA7QGC5F","1",3,3,3,"5","<p style=""font-size:100px""><b>t</b></p><p style=""position: absolute; top: 30px; right: 30px; text-align:right; font-size:50px"""">N = 3</p>","t",0,73,542,1,"agree",14,18,18,15,18,"24","male","yes, nice","Moderate Agreement","Moderate Agreement","Strong Disagreement","Neither Agreement nor Disagreement","Moderate Agreement","Slight Agreement","Slight Disagreement","Moderate Agreement","Strong Agreement","Slight Agreement","Slight Disagreement","Moderate Disagreement","Slight Agreement","Neither Agreement nor Disagreement","Slight Agreement","Moderate Agreement","Neither Agreement nor Disagreement","Strong Disagreement"
"64","A14LCGE6Y8ZLPE:3Q8GYXHFEQ8U39248LZEK2YA7QGC5F","1",3,4,3,"5","<p style=""font-size:100px""><b>D</b></p><p style=""position: absolute; top: 30px; right: 30px; text-align:right; font-size:50px"""">N = 3</p>","D",0,69,817,0,"agree",14,18,18,15,18,"24","male","yes, nice","Moderate Agreement","Moderate Agreement","Strong Disagreement","Neither Agreement nor Disagreement","Moderate Agreement","Slight Agreement","Slight Disagreement","Moderate Agreement","Strong Agreement","Slight Agreement","Slight Disagreement","Moderate Disagreement","Slight Agreement","Neither Agreement nor Disagreement","Slight Agreement","Moderate Agreement","Neither Agreement nor Disagreement","Strong Disagreement"
"65","A14LCGE6Y8ZLPE:3Q8GYXHFEQ8U39248LZEK2YA7QGC5F","1",3,5,3,"5","<p style=""font-size:100px""><b>V</b></p><p style=""position: absolute; top: 30px; right: 30px; text-align:right; font-size:50px"""">N = 3</p>","V",0,73,604,1,"agree",14,18,18,15,18,"24","male","yes, nice","Moderate Agreement","Moderate Agreement","Strong Disagreement","Neither Agreement nor Disagreement","Moderate Agreement","Slight Agreement","Slight Disagreement","Moderate Agreement","Strong Agreement","Slight Agreement","Slight Disagreement","Moderate Disagreement","Slight Agreement","Neither Agreement nor Disagreement","Slight Agreement","Moderate Agreement","Neither Agreement nor Disagreement","Strong Disagreement"
"66","A14LCGE6Y8ZLPE:3Q8GYXHFEQ8U39248LZEK2YA7QGC5F","1",3,6,3,"5","<p style=""font-size:100px""><b>v</b></p><p style=""position: absolute; top: 30px; right: 30px; text-align:right; font-size:50px"""">N = 3</p>","v",0,73,847,1,"agree",14,18,18,15,18,"24","male","yes, nice","Moderate Agreement","Moderate Agreement","Strong Disagreement","Neither Agreement nor Disagreement","Moderate Agreement","Slight Agreement","Slight Disagreement","Moderate Agreement","Strong Agreement","Slight Agreement","Slight Disagreement","Moderate Disagreement","Slight Agreement","Neither Agreement nor Disagreement","Slight Agreement","Moderate Agreement","Neither Agreement nor Disagreement","Strong Disagreement"
"67","A14LCGE6Y8ZLPE:3Q8GYXHFEQ8U39248LZEK2YA7QGC5F","1",3,7,3,"5","<p style=""font-size:100px""><b>P</b></p><p style=""position: absolute; top: 30px; right: 30px; text-align:right; font-size:50px"""">N = 3</p>","P",0,73,521,1,"agree",14,18,18,15,18,"24","male","yes, nice","Moderate Agreement","Moderate Agreement","Strong Disagreement","Neither Agreement nor Disagreement","Moderate Agreement","Slight Agreement","Slight Disagreement","Moderate Agreement","Strong Agreement","Slight Agreement","Slight Disagreement","Moderate Disagreement","Slight Agreement","Neither Agreement nor Disagreement","Slight Agreement","Moderate Agreement","Neither Agreement nor Disagreement","Strong Disagreement"
"68","A14LCGE6Y8ZLPE:3Q8GYXHFEQ8U39248LZEK2YA7QGC5F","1",3,8,3,"5","<p style=""font-size:100px""><b>T</b></p><p style=""position: absolute; top: 30px; right: 30px; text-align:right; font-size:50px"""">N = 3</p>","T",0,73,721,1,"agree",14,18,18,15,18,"24","male","yes, nice","Moderate Agreement","Moderate Agreement","Strong Disagreement","Neither Agreement nor Disagreement","Moderate Agreement","Slight Agreement","Slight Disagreement","Moderate Agreement","Strong Agreement","Slight Agreement","Slight Disagreement","Moderate Disagreement","Slight Agreement","Neither Agreement nor Disagreement","Slight Agreement","Moderate Agreement","Neither Agreement nor Disagreement","Strong Disagreement"
"69","A14LCGE6Y8ZLPE:3Q8GYXHFEQ8U39248LZEK2YA7QGC5F","1",3,9,3,"5","<p style=""font-size:100px""><b>v</b></p><p style=""position: absolute; top: 30px; right: 30px; text-align:right; font-size:50px"""">N = 3</p>","v",0,69,310,0,"agree",14,18,18,15,18,"24","male","yes, nice","Moderate Agreement","Moderate Agreement","Strong Disagreement","Neither Agreement nor Disagreement","Moderate Agreement","Slight Agreement","Slight Disagreement","Moderate Agreement","Strong Agreement","Slight Agreement","Slight Disagreement","Moderate Disagreement","Slight Agreement","Neither Agreement nor Disagreement","Slight Agreement","Moderate Agreement","Neither Agreement nor Disagreement","Strong Disagreement"
"70","A14LCGE6Y8ZLPE:3Q8GYXHFEQ8U39248LZEK2YA7QGC5F","1",3,10,3,"5","<p style=""font-size:100px""><b>b</b></p><p style=""position: absolute; top: 30px; right: 30px; text-align:right; font-size:50px"""">N = 3</p>","b",0,69,645,0,"agree",14,18,18,15,18,"24","male","yes, nice","Moderate Agreement","Moderate Agreement","Strong Disagreement","Neither Agreement nor Disagreement","Moderate Agreement","Slight Agreement","Slight Disagreement","Moderate Agreement","Strong Agreement","Slight Agreement","Slight Disagreement","Moderate Disagreement","Slight Agreement","Neither Agreement nor Disagreement","Slight Agreement","Moderate Agreement","Neither Agreement nor Disagreement","Strong Disagreement"
"71","A14LCGE6Y8ZLPE:3Q8GYXHFEQ8U39248LZEK2YA7QGC5F","1",3,11,3,"5","<p style=""font-size:100px""><b>T</b></p><p style=""position: absolute; top: 30px; right: 30px; text-align:right; font-size:50px"""">N = 3</p>","T",0,69,952,0,"agree",14,18,18,15,18,"24","male","yes, nice","Moderate Agreement","Moderate Agreement","Strong Disagreement","Neither Agreement nor Disagreement","Moderate Agreement","Slight Agreement","Slight Disagreement","Moderate Agreement","Strong Agreement","Slight Agreement","Slight Disagreement","Moderate Disagreement","Slight Agreement","Neither Agreement nor Disagreement","Slight Agreement","Moderate Agreement","Neither Agreement nor Disagreement","Strong Disagreement"
"72","A14LCGE6Y8ZLPE:3Q8GYXHFEQ8U39248LZEK2YA7QGC5F","1",3,12,3,"5","<p style=""font-size:100px""><b>v</b></p><p style=""position: absolute; top: 30px; right: 30px; text-align:right; font-size:50px"""">N = 3</p>","v",0,NA,NA,0,"agree",14,18,18,15,18,"24","male","yes, nice","Moderate Agreement","Moderate Agreement","Strong Disagreement","Neither Agreement nor Disagreement","Moderate Agreement","Slight Agreement","Slight Disagreement","Moderate Agreement","Strong Agreement","Slight Agreement","Slight Disagreement","Moderate Disagreement","Slight Agreement","Neither Agreement nor Disagreement","Slight Agreement","Moderate Agreement","Neither Agreement nor Disagreement","Strong Disagreement"
"73","A14LCGE6Y8ZLPE:3Q8GYXHFEQ8U39248LZEK2YA7QGC5F","1",4,1,3,"50","<p style=""font-size:100px""><b>b</b></p><p style=""position: absolute; top: 30px; right: 30px; text-align:right; font-size:50px"""">N = 3</p>","b",0,69,215,0,"agree",15,17,15,18,14,"24","male","yes, nice","Moderate Agreement","Moderate Agreement","Strong Disagreement","Neither Agreement nor Disagreement","Moderate Agreement","Slight Agreement","Slight Disagreement","Moderate Agreement","Strong Agreement","Slight Agreement","Slight Disagreement","Moderate Disagreement","Slight Agreement","Neither Agreement nor Disagreement","Slight Agreement","Moderate Agreement","Neither Agreement nor Disagreement","Strong Disagreement"
"74","A14LCGE6Y8ZLPE:3Q8GYXHFEQ8U39248LZEK2YA7QGC5F","1",4,2,3,"50","<p style=""font-size:100px""><b>V</b></p><p style=""position: absolute; top: 30px; right: 30px; text-align:right; font-size:50px"""">N = 3</p>","V",0,73,396,1,"agree",15,17,15,18,14,"24","male","yes, nice","Moderate Agreement","Moderate Agreement","Strong Disagreement","Neither Agreement nor Disagreement","Moderate Agreement","Slight Agreement","Slight Disagreement","Moderate Agreement","Strong Agreement","Slight Agreement","Slight Disagreement","Moderate Disagreement","Slight Agreement","Neither Agreement nor Disagreement","Slight Agreement","Moderate Agreement","Neither Agreement nor Disagreement","Strong Disagreement"
"75","A14LCGE6Y8ZLPE:3Q8GYXHFEQ8U39248LZEK2YA7QGC5F","1",4,3,3,"50","<p style=""font-size:100px""><b>P</b></p><p style=""position: absolute; top: 30px; right: 30px; text-align:right; font-size:50px"""">N = 3</p>","P",0,73,711,1,"agree",15,17,15,18,14,"24","male","yes, nice","Moderate Agreement","Moderate Agreement","Strong Disagreement","Neither Agreement nor Disagreement","Moderate Agreement","Slight Agreement","Slight Disagreement","Moderate Agreement","Strong Agreement","Slight Agreement","Slight Disagreement","Moderate Disagreement","Slight Agreement","Neither Agreement nor Disagreement","Slight Agreement","Moderate Agreement","Neither Agreement nor Disagreement","Strong Disagreement"
"76","A14LCGE6Y8ZLPE:3Q8GYXHFEQ8U39248LZEK2YA7QGC5F","1",4,4,3,"50","<p style=""font-size:100px""><b>G</b></p><p style=""position: absolute; top: 30px; right: 30px; text-align:right; font-size:50px"""">N = 3</p>","G",0,73,649,1,"agree",15,17,15,18,14,"24","male","yes, nice","Moderate Agreement","Moderate Agreement","Strong Disagreement","Neither Agreement nor Disagreement","Moderate Agreement","Slight Agreement","Slight Disagreement","Moderate Agreement","Strong Agreement","Slight Agreement","Slight Disagreement","Moderate Disagreement","Slight Agreement","Neither Agreement nor Disagreement","Slight Agreement","Moderate Agreement","Neither Agreement nor Disagreement","Strong Disagreement"
"77","A14LCGE6Y8ZLPE:3Q8GYXHFEQ8U39248LZEK2YA7QGC5F","1",4,5,3,"50","<p style=""font-size:100px""><b>V</b></p><p style=""position: absolute; top: 30px; right: 30px; text-align:right; font-size:50px"""">N = 3</p>","V",0,69,887,0,"agree",15,17,15,18,14,"24","male","yes, nice","Moderate Agreement","Moderate Agreement","Strong Disagreement","Neither Agreement nor Disagreement","Moderate Agreement","Slight Agreement","Slight Disagreement","Moderate Agreement","Strong Agreement","Slight Agreement","Slight Disagreement","Moderate Disagreement","Slight Agreement","Neither Agreement nor Disagreement","Slight Agreement","Moderate Agreement","Neither Agreement nor Disagreement","Strong Disagreement"
"78","A14LCGE6Y8ZLPE:3Q8GYXHFEQ8U39248LZEK2YA7QGC5F","1",4,6,3,"50","<p style=""font-size:100px""><b>P</b></p><p style=""position: absolute; top: 30px; right: 30px; text-align:right; font-size:50px"""">N = 3</p>","P",0,73,452,1,"agree",15,17,15,18,14,"24","male","yes, nice","Moderate Agreement","Moderate Agreement","Strong Disagreement","Neither Agreement nor Disagreement","Moderate Agreement","Slight Agreement","Slight Disagreement","Moderate Agreement","Strong Agreement","Slight Agreement","Slight Disagreement","Moderate Disagreement","Slight Agreement","Neither Agreement nor Disagreement","Slight Agreement","Moderate Agreement","Neither Agreement nor Disagreement","Strong Disagreement"
"79","A14LCGE6Y8ZLPE:3Q8GYXHFEQ8U39248LZEK2YA7QGC5F","1",4,7,3,"50","<p style=""font-size:100px""><b>G</b></p><p style=""position: absolute; top: 30px; right: 30px; text-align:right; font-size:50px"""">N = 3</p>","G",0,73,720,1,"agree",15,17,15,18,14,"24","male","yes, nice","Moderate Agreement","Moderate Agreement","Strong Disagreement","Neither Agreement nor Disagreement","Moderate Agreement","Slight Agreement","Slight Disagreement","Moderate Agreement","Strong Agreement","Slight Agreement","Slight Disagreement","Moderate Disagreement","Slight Agreement","Neither Agreement nor Disagreement","Slight Agreement","Moderate Agreement","Neither Agreement nor Disagreement","Strong Disagreement"
"80","A14LCGE6Y8ZLPE:3Q8GYXHFEQ8U39248LZEK2YA7QGC5F","1",4,8,3,"50","<p style=""font-size:100px""><b>V</b></p><p style=""position: absolute; top: 30px; right: 30px; text-align:right; font-size:50px"""">N = 3</p>","V",0,73,727,1,"agree",15,17,15,18,14,"24","male","yes, nice","Moderate Agreement","Moderate Agreement","Strong Disagreement","Neither Agreement nor Disagreement","Moderate Agreement","Slight Agreement","Slight Disagreement","Moderate Agreement","Strong Agreement","Slight Agreement","Slight Disagreement","Moderate Disagreement","Slight Agreement","Neither Agreement nor Disagreement","Slight Agreement","Moderate Agreement","Neither Agreement nor Disagreement","Strong Disagreement"
"81","A14LCGE6Y8ZLPE:3Q8GYXHFEQ8U39248LZEK2YA7QGC5F","1",4,9,3,"50","<p style=""font-size:100px""><b>V</b></p><p style=""position: absolute; top: 30px; right: 30px; text-align:right; font-size:50px"""">N = 3</p>","V",0,73,427,1,"agree",15,17,15,18,14,"24","male","yes, nice","Moderate Agreement","Moderate Agreement","Strong Disagreement","Neither Agreement nor Disagreement","Moderate Agreement","Slight Agreement","Slight Disagreement","Moderate Agreement","Strong Agreement","Slight Agreement","Slight Disagreement","Moderate Disagreement","Slight Agreement","Neither Agreement nor Disagreement","Slight Agreement","Moderate Agreement","Neither Agreement nor Disagreement","Strong Disagreement"
"82","A14LCGE6Y8ZLPE:3Q8GYXHFEQ8U39248LZEK2YA7QGC5F","1",4,10,3,"50","<p style=""font-size:100px""><b>D</b></p><p style=""position: absolute; top: 30px; right: 30px; text-align:right; font-size:50px"""">N = 3</p>","D",0,69,24,0,"agree",15,17,15,18,14,"24","male","yes, nice","Moderate Agreement","Moderate Agreement","Strong Disagreement","Neither Agreement nor Disagreement","Moderate Agreement","Slight Agreement","Slight Disagreement","Moderate Agreement","Strong Agreement","Slight Agreement","Slight Disagreement","Moderate Disagreement","Slight Agreement","Neither Agreement nor Disagreement","Slight Agreement","Moderate Agreement","Neither Agreement nor Disagreement","Strong Disagreement"
"83","A14LCGE6Y8ZLPE:3Q8GYXHFEQ8U39248LZEK2YA7QGC5F","1",4,11,3,"50","<p style=""font-size:100px""><b>G</b></p><p style=""position: absolute; top: 30px; right: 30px; text-align:right; font-size:50px"""">N = 3</p>","G",0,73,17,1,"agree",15,17,15,18,14,"24","male","yes, nice","Moderate Agreement","Moderate Agreement","Strong Disagreement","Neither Agreement nor Disagreement","Moderate Agreement","Slight Agreement","Slight Disagreement","Moderate Agreement","Strong Agreement","Slight Agreement","Slight Disagreement","Moderate Disagreement","Slight Agreement","Neither Agreement nor Disagreement","Slight Agreement","Moderate Agreement","Neither Agreement nor Disagreement","Strong Disagreement"
"84","A14LCGE6Y8ZLPE:3Q8GYXHFEQ8U39248LZEK2YA7QGC5F","1",4,12,3,"50","<p style=""font-size:100px""><b>T</b></p><p style=""position: absolute; top: 30px; right: 30px; text-align:right; font-size:50px"""">N = 3</p>","T",0,73,76,1,"agree",15,17,15,18,14,"24","male","yes, nice","Moderate Agreement","Moderate Agreement","Strong Disagreement","Neither Agreement nor Disagreement","Moderate Agreement","Slight Agreement","Slight Disagreement","Moderate Agreement","Strong Agreement","Slight Agreement","Slight Disagreement","Moderate Disagreement","Slight Agreement","Neither Agreement nor Disagreement","Slight Agreement","Moderate Agreement","Neither Agreement nor Disagreement","Strong Disagreement"
"85","A14LCGE6Y8ZLPE:3Q8GYXHFEQ8U39248LZEK2YA7QGC5F","1",5,1,1,"5","<p style=""font-size:100px""><b>v</b></p><p style=""position: absolute; top: 30px; right: 30px; text-align:right; font-size:50px"""">N = 1</p>","v",0,73,528,1,"agree",17,14,19,15,19,"24","male","yes, nice","Moderate Agreement","Moderate Agreement","Strong Disagreement","Neither Agreement nor Disagreement","Moderate Agreement","Slight Agreement","Slight Disagreement","Moderate Agreement","Strong Agreement","Slight Agreement","Slight Disagreement","Moderate Disagreement","Slight Agreement","Neither Agreement nor Disagreement","Slight Agreement","Moderate Agreement","Neither Agreement nor Disagreement","Strong Disagreement"
"86","A14LCGE6Y8ZLPE:3Q8GYXHFEQ8U39248LZEK2YA7QGC5F","1",5,2,1,"5","<p style=""font-size:100px""><b>G</b></p><p style=""position: absolute; top: 30px; right: 30px; text-align:right; font-size:50px"""">N = 1</p>","G",0,73,890,1,"agree",17,14,19,15,19,"24","male","yes, nice","Moderate Agreement","Moderate Agreement","Strong Disagreement","Neither Agreement nor Disagreement","Moderate Agreement","Slight Agreement","Slight Disagreement","Moderate Agreement","Strong Agreement","Slight Agreement","Slight Disagreement","Moderate Disagreement","Slight Agreement","Neither Agreement nor Disagreement","Slight Agreement","Moderate Agreement","Neither Agreement nor Disagreement","Strong Disagreement"
"87","A14LCGE6Y8ZLPE:3Q8GYXHFEQ8U39248LZEK2YA7QGC5F","1",5,3,1,"5","<p style=""font-size:100px""><b>d</b></p><p style=""position: absolute; top: 30px; right: 30px; text-align:right; font-size:50px"""">N = 1</p>","d",0,73,492,1,"agree",17,14,19,15,19,"24","male","yes, nice","Moderate Agreement","Moderate Agreement","Strong Disagreement","Neither Agreement nor Disagreement","Moderate Agreement","Slight Agreement","Slight Disagreement","Moderate Agreement","Strong Agreement","Slight Agreement","Slight Disagreement","Moderate Disagreement","Slight Agreement","Neither Agreement nor Disagreement","Slight Agreement","Moderate Agreement","Neither Agreement nor Disagreement","Strong Disagreement"
"88","A14LCGE6Y8ZLPE:3Q8GYXHFEQ8U39248LZEK2YA7QGC5F","1",5,4,1,"5","<p style=""font-size:100px""><b>p</b></p><p style=""position: absolute; top: 30px; right: 30px; text-align:right; font-size:50px"""">N = 1</p>","p",0,73,703,1,"agree",17,14,19,15,19,"24","male","yes, nice","Moderate Agreement","Moderate Agreement","Strong Disagreement","Neither Agreement nor Disagreement","Moderate Agreement","Slight Agreement","Slight Disagreement","Moderate Agreement","Strong Agreement","Slight Agreement","Slight Disagreement","Moderate Disagreement","Slight Agreement","Neither Agreement nor Disagreement","Slight Agreement","Moderate Agreement","Neither Agreement nor Disagreement","Strong Disagreement"
"89","A14LCGE6Y8ZLPE:3Q8GYXHFEQ8U39248LZEK2YA7QGC5F","1",5,5,1,"5","<p style=""font-size:100px""><b>D</b></p><p style=""position: absolute; top: 30px; right: 30px; text-align:right; font-size:50px"""">N = 1</p>","D",0,73,168,1,"agree",17,14,19,15,19,"24","male","yes, nice","Moderate Agreement","Moderate Agreement","Strong Disagreement","Neither Agreement nor Disagreement","Moderate Agreement","Slight Agreement","Slight Disagreement","Moderate Agreement","Strong Agreement","Slight Agreement","Slight Disagreement","Moderate Disagreement","Slight Agreement","Neither Agreement nor Disagreement","Slight Agreement","Moderate Agreement","Neither Agreement nor Disagreement","Strong Disagreement"
"90","A14LCGE6Y8ZLPE:3Q8GYXHFEQ8U39248LZEK2YA7QGC5F","1",5,6,1,"5","<p style=""font-size:100px""><b>P</b></p><p style=""position: absolute; top: 30px; right: 30px; text-align:right; font-size:50px"""">N = 1</p>","P",0,NA,NA,0,"agree",17,14,19,15,19,"24","male","yes, nice","Moderate Agreement","Moderate Agreement","Strong Disagreement","Neither Agreement nor Disagreement","Moderate Agreement","Slight Agreement","Slight Disagreement","Moderate Agreement","Strong Agreement","Slight Agreement","Slight Disagreement","Moderate Disagreement","Slight Agreement","Neither Agreement nor Disagreement","Slight Agreement","Moderate Agreement","Neither Agreement nor Disagreement","Strong Disagreement"
"91","A14LCGE6Y8ZLPE:3Q8GYXHFEQ8U39248LZEK2YA7QGC5F","1",5,7,1,"5","<p style=""font-size:100px""><b>t</b></p><p style=""position: absolute; top: 30px; right: 30px; text-align:right; font-size:50px"""">N = 1</p>","t",0,NA,NA,0,"agree",17,14,19,15,19,"24","male","yes, nice","Moderate Agreement","Moderate Agreement","Strong Disagreement","Neither Agreement nor Disagreement","Moderate Agreement","Slight Agreement","Slight Disagreement","Moderate Agreement","Strong Agreement","Slight Agreement","Slight Disagreement","Moderate Disagreement","Slight Agreement","Neither Agreement nor Disagreement","Slight Agreement","Moderate Agreement","Neither Agreement nor Disagreement","Strong Disagreement"
"92","A14LCGE6Y8ZLPE:3Q8GYXHFEQ8U39248LZEK2YA7QGC5F","1",5,8,1,"5","<p style=""font-size:100px""><b>t</b></p><p style=""position: absolute; top: 30px; right: 30px; text-align:right; font-size:50px"""">N = 1</p>","t",0,69,719,0,"agree",17,14,19,15,19,"24","male","yes, nice","Moderate Agreement","Moderate Agreement","Strong Disagreement","Neither Agreement nor Disagreement","Moderate Agreement","Slight Agreement","Slight Disagreement","Moderate Agreement","Strong Agreement","Slight Agreement","Slight Disagreement","Moderate Disagreement","Slight Agreement","Neither Agreement nor Disagreement","Slight Agreement","Moderate Agreement","Neither Agreement nor Disagreement","Strong Disagreement"
"93","A14LCGE6Y8ZLPE:3Q8GYXHFEQ8U39248LZEK2YA7QGC5F","1",5,9,1,"5","<p style=""font-size:100px""><b>V</b></p><p style=""position: absolute; top: 30px; right: 30px; text-align:right; font-size:50px"""">N = 1</p>","V",0,69,71,0,"agree",17,14,19,15,19,"24","male","yes, nice","Moderate Agreement","Moderate Agreement","Strong Disagreement","Neither Agreement nor Disagreement","Moderate Agreement","Slight Agreement","Slight Disagreement","Moderate Agreement","Strong Agreement","Slight Agreement","Slight Disagreement","Moderate Disagreement","Slight Agreement","Neither Agreement nor Disagreement","Slight Agreement","Moderate Agreement","Neither Agreement nor Disagreement","Strong Disagreement"
"94","A14LCGE6Y8ZLPE:3Q8GYXHFEQ8U39248LZEK2YA7QGC5F","1",5,10,1,"5","<p style=""font-size:100px""><b>V</b></p><p style=""position: absolute; top: 30px; right: 30px; text-align:right; font-size:50px"""">N = 1</p>","V",0,73,125,1,"agree",17,14,19,15,19,"24","male","yes, nice","Moderate Agreement","Moderate Agreement","Strong Disagreement","Neither Agreement nor Disagreement","Moderate Agreement","Slight Agreement","Slight Disagreement","Moderate Agreement","Strong Agreement","Slight Agreement","Slight Disagreement","Moderate Disagreement","Slight Agreement","Neither Agreement nor Disagreement","Slight Agreement","Moderate Agreement","Neither Agreement nor Disagreement","Strong Disagreement"
"95","A14LCGE6Y8ZLPE:3Q8GYXHFEQ8U39248LZEK2YA7QGC5F","1",5,11,1,"5","<p style=""font-size:100px""><b>V</b></p><p style=""position: absolute; top: 30px; right: 30px; text-align:right; font-size:50px"""">N = 1</p>","V",0,NA,NA,0,"agree",17,14,19,15,19,"24","male","yes, nice","Moderate Agreement","Moderate Agreement","Strong Disagreement","Neither Agreement nor Disagreement","Moderate Agreement","Slight Agreement","Slight Disagreement","Moderate Agreement","Strong Agreement","Slight Agreement","Slight Disagreement","Moderate Disagreement","Slight Agreement","Neither Agreement nor Disagreement","Slight Agreement","Moderate Agreement","Neither Agreement nor Disagreement","Strong Disagreement"
"96","A14LCGE6Y8ZLPE:3Q8GYXHFEQ8U39248LZEK2YA7QGC5F","1",5,12,1,"5","<p style=""font-size:100px""><b>V</b></p><p style=""position: absolute; top: 30px; right: 30px; text-align:right; font-size:50px"""">N = 1</p>","V",0,73,959,1,"agree",17,14,19,15,19,"24","male","yes, nice","Moderate Agreement","Moderate Agreement","Strong Disagreement","Neither Agreement nor Disagreement","Moderate Agreement","Slight Agreement","Slight Disagreement","Moderate Agreement","Strong Agreement","Slight Agreement","Slight Disagreement","Moderate Disagreement","Slight Agreement","Neither Agreement nor Disagreement","Slight Agreement","Moderate Agreement","Neither Agreement nor Disagreement","Strong Disagreement"
"97","A14LCGE6Y8ZLPE:3Q8GYXHFEQ8U39248LZEK2YA7QGC5F","1",6,1,3,"5","<p style=""font-size:100px""><b>P</b></p><p style=""position: absolute; top: 30px; right: 30px; text-align:right; font-size:50px"""">N = 3</p>","P",0,73,280,1,"agree",17,15,21,17,19,"24","male","yes, nice","Moderate Agreement","Moderate Agreement","Strong Disagreement","Neither Agreement nor Disagreement","Moderate Agreement","Slight Agreement","Slight Disagreement","Moderate Agreement","Strong Agreement","Slight Agreement","Slight Disagreement","Moderate Disagreement","Slight Agreement","Neither Agreement nor Disagreement","Slight Agreement","Moderate Agreement","Neither Agreement nor Disagreement","Strong Disagreement"
"98","A14LCGE6Y8ZLPE:3Q8GYXHFEQ8U39248LZEK2YA7QGC5F","1",6,2,3,"5","<p style=""font-size:100px""><b>v</b></p><p style=""position: absolute; top: 30px; right: 30px; text-align:right; font-size:50px"""">N = 3</p>","v",0,NA,NA,0,"agree",17,15,21,17,19,"24","male","yes, nice","Moderate Agreement","Moderate Agreement","Strong Disagreement","Neither Agreement nor Disagreement","Moderate Agreement","Slight Agreement","Slight Disagreement","Moderate Agreement","Strong Agreement","Slight Agreement","Slight Disagreement","Moderate Disagreement","Slight Agreement","Neither Agreement nor Disagreement","Slight Agreement","Moderate Agreement","Neither Agreement nor Disagreement","Strong Disagreement"
"99","A14LCGE6Y8ZLPE:3Q8GYXHFEQ8U39248LZEK2YA7QGC5F","1",6,3,3,"5","<p style=""font-size:100px""><b>p</b></p><p style=""position: absolute; top: 30px; right: 30px; text-align:right; font-size:50px"""">N = 3</p>","p",0,73,92,1,"agree",17,15,21,17,19,"24","male","yes, nice","Moderate Agreement","Moderate Agreement","Strong Disagreement","Neither Agreement nor Disagreement","Moderate Agreement","Slight Agreement","Slight Disagreement","Moderate Agreement","Strong Agreement","Slight Agreement","Slight Disagreement","Moderate Disagreement","Slight Agreement","Neither Agreement nor Disagreement","Slight Agreement","Moderate Agreement","Neither Agreement nor Disagreement","Strong Disagreement"
"100","A14LCGE6Y8ZLPE:3Q8GYXHFEQ8U39248LZEK2YA7QGC5F","1",6,4,3,"5","<p style=""font-size:100px""><b>G</b></p><p style=""position: absolute; top: 30px; right: 30px; text-align:right; font-size:50px"""">N = 3</p>","G",0,73,766,1,"agree",17,15,21,17,19,"24","male","yes, nice","Moderate Agreement","Moderate Agreement","Strong Disagreement","Neither Agreement nor Disagreement","Moderate Agreement","Slight Agreement","Slight Disagreement","Moderate Agreement","Strong Agreement","Slight Agreement","Slight Disagreement","Moderate Disagreement","Slight Agreement","Neither Agreement nor Disagreement","Slight Agreement","Moderate Agreement","Neither Agreement nor Disagreement","Strong Disagreement"
"101","A14LCGE6Y8ZLPE:3Q8GYXHFEQ8U39248LZEK2YA7QGC5F","1",6,5,3,"5","<p style=""font-size:100px""><b>v</b></p><p style=""position: absolute; top: 30px; right: 30px; text-align:right; font-size:50px"""">N = 3</p>","v",0,73,282,1,"agree",17,15,21,17,19,"24","male","yes, nice","Moderate Agreement","Moderate Agreement","Strong Disagreement","Neither Agreement nor Disagreement","Moderate Agreement","Slight Agreement","Slight Disagreement","Moderate Agreement","Strong Agreement","Slight Agreement","Slight Disagreement","Moderate Disagreement","Slight Agreement","Neither Agreement nor Disagreement","Slight Agreement","Moderate Agreement","Neither Agreement nor Disagreement","Strong Disagreement"
"102","A14LCGE6Y8ZLPE:3Q8GYXHFEQ8U39248LZEK2YA7QGC5F","1",6,6,3,"5","<p style=""font-size:100px""><b>p</b></p><p style=""position: absolute; top: 30px; right: 30px; text-align:right; font-size:50px"""">N = 3</p>","p",0,73,551,1,"agree",17,15,21,17,19,"24","male","yes, nice","Moderate Agreement","Moderate Agreement","Strong Disagreement","Neither Agreement nor Disagreement","Moderate Agreement","Slight Agreement","Slight Disagreement","Moderate Agreement","Strong Agreement","Slight Agreement","Slight Disagreement","Moderate Disagreement","Slight Agreement","Neither Agreement nor Disagreement","Slight Agreement","Moderate Agreement","Neither Agreement nor Disagreement","Strong Disagreement"
"103","A14LCGE6Y8ZLPE:3Q8GYXHFEQ8U39248LZEK2YA7QGC5F","1",6,7,3,"5","<p style=""font-size:100px""><b>p</b></p><p style=""position: absolute; top: 30px; right: 30px; text-align:right; font-size:50px"""">N = 3</p>","p",0,NA,NA,0,"agree",17,15,21,17,19,"24","male","yes, nice","Moderate Agreement","Moderate Agreement","Strong Disagreement","Neither Agreement nor Disagreement","Moderate Agreement","Slight Agreement","Slight Disagreement","Moderate Agreement","Strong Agreement","Slight Agreement","Slight Disagreement","Moderate Disagreement","Slight Agreement","Neither Agreement nor Disagreement","Slight Agreement","Moderate Agreement","Neither Agreement nor Disagreement","Strong Disagreement"
"104","A14LCGE6Y8ZLPE:3Q8GYXHFEQ8U39248LZEK2YA7QGC5F","1",6,8,3,"5","<p style=""font-size:100px""><b>v</b></p><p style=""position: absolute; top: 30px; right: 30px; text-align:right; font-size:50px"""">N = 3</p>","v",0,NA,NA,0,"agree",17,15,21,17,19,"24","male","yes, nice","Moderate Agreement","Moderate Agreement","Strong Disagreement","Neither Agreement nor Disagreement","Moderate Agreement","Slight Agreement","Slight Disagreement","Moderate Agreement","Strong Agreement","Slight Agreement","Slight Disagreement","Moderate Disagreement","Slight Agreement","Neither Agreement nor Disagreement","Slight Agreement","Moderate Agreement","Neither Agreement nor Disagreement","Strong Disagreement"
"105","A14LCGE6Y8ZLPE:3Q8GYXHFEQ8U39248LZEK2YA7QGC5F","1",6,9,3,"5","<p style=""font-size:100px""><b>D</b></p><p style=""position: absolute; top: 30px; right: 30px; text-align:right; font-size:50px"""">N = 3</p>","D",0,73,19,1,"agree",17,15,21,17,19,"24","male","yes, nice","Moderate Agreement","Moderate Agreement","Strong Disagreement","Neither Agreement nor Disagreement","Moderate Agreement","Slight Agreement","Slight Disagreement","Moderate Agreement","Strong Agreement","Slight Agreement","Slight Disagreement","Moderate Disagreement","Slight Agreement","Neither Agreement nor Disagreement","Slight Agreement","Moderate Agreement","Neither Agreement nor Disagreement","Strong Disagreement"
"106","A14LCGE6Y8ZLPE:3Q8GYXHFEQ8U39248LZEK2YA7QGC5F","1",6,10,3,"5","<p style=""font-size:100px""><b>p</b></p><p style=""position: absolute; top: 30px; right: 30px; text-align:right; font-size:50px"""">N = 3</p>","p",0,NA,NA,0,"agree",17,15,21,17,19,"24","male","yes, nice","Moderate Agreement","Moderate Agreement","Strong Disagreement","Neither Agreement nor Disagreement","Moderate Agreement","Slight Agreement","Slight Disagreement","Moderate Agreement","Strong Agreement","Slight Agreement","Slight Disagreement","Moderate Disagreement","Slight Agreement","Neither Agreement nor Disagreement","Slight Agreement","Moderate Agreement","Neither Agreement nor Disagreement","Strong Disagreement"
"107","A14LCGE6Y8ZLPE:3Q8GYXHFEQ8U39248LZEK2YA7QGC5F","1",6,11,3,"5","<p style=""font-size:100px""><b>P</b></p><p style=""position: absolute; top: 30px; right: 30px; text-align:right; font-size:50px"""">N = 3</p>","P",0,69,847,0,"agree",17,15,21,17,19,"24","male","yes, nice","Moderate Agreement","Moderate Agreement","Strong Disagreement","Neither Agreement nor Disagreement","Moderate Agreement","Slight Agreement","Slight Disagreement","Moderate Agreement","Strong Agreement","Slight Agreement","Slight Disagreement","Moderate Disagreement","Slight Agreement","Neither Agreement nor Disagreement","Slight Agreement","Moderate Agreement","Neither Agreement nor Disagreement","Strong Disagreement"
"108","A14LCGE6Y8ZLPE:3Q8GYXHFEQ8U39248LZEK2YA7QGC5F","1",6,12,3,"5","<p style=""font-size:100px""><b>B</b></p><p style=""position: absolute; top: 30px; right: 30px; text-align:right; font-size:50px"""">N = 3</p>","B",0,73,857,1,"agree",17,15,21,17,19,"24","male","yes, nice","Moderate Agreement","Moderate Agreement","Strong Disagreement","Neither Agreement nor Disagreement","Moderate Agreement","Slight Agreement","Slight Disagreement","Moderate Agreement","Strong Agreement","Slight Agreement","Slight Disagreement","Moderate Disagreement","Slight Agreement","Neither Agreement nor Disagreement","Slight Agreement","Moderate Agreement","Neither Agreement nor Disagreement","Strong Disagreement"
"109","A14LCGE6Y8ZLPE:3Q8GYXHFEQ8U39248LZEK2YA7QGC5F","2",7,1,1,"50","<p style=""font-size:100px""><b>T</b></p><p style=""position: absolute; top: 30px; right: 30px; text-align:right; font-size:50px"""">N = 1</p>","T",0,73,665,1,"agree",14,15,15,14,19,"24","male","yes, nice","Moderate Agreement","Moderate Agreement","Strong Disagreement","Neither Agreement nor Disagreement","Moderate Agreement","Slight Agreement","Slight Disagreement","Moderate Agreement","Strong Agreement","Slight Agreement","Slight Disagreement","Moderate Disagreement","Slight Agreement","Neither Agreement nor Disagreement","Slight Agreement","Moderate Agreement","Neither Agreement nor Disagreement","Strong Disagreement"
"110","A14LCGE6Y8ZLPE:3Q8GYXHFEQ8U39248LZEK2YA7QGC5F","2",7,2,1,"50","<p style=""font-size:100px""><b>G</b></p><p style=""position: absolute; top: 30px; right: 30px; text-align:right; font-size:50px"""">N = 1</p>","G",0,73,413,1,"agree",14,15,15,14,19,"24","male","yes, nice","Moderate Agreement","Moderate Agreement","Strong Disagreement","Neither Agreement nor Disagreement","Moderate Agreement","Slight Agreement","Slight Disagreement","Moderate Agreement","Strong Agreement","Slight Agreement","Slight Disagreement","Moderate Disagreement","Slight Agreement","Neither Agreement nor Disagreement","Slight Agreement","Moderate Agreement","Neither Agreement nor Disagreement","Strong Disagreement"
"111","A14LCGE6Y8ZLPE:3Q8GYXHFEQ8U39248LZEK2YA7QGC5F","2",7,3,1,"50","<p style=""font-size:100px""><b>p</b></p><p style=""position: absolute; top: 30px; right: 30px; text-align:right; font-size:50px"""">N = 1</p>","p",0,73,504,1,"agree",14,15,15,14,19,"24","male","yes, nice","Moderate Agreement","Moderate Agreement","Strong Disagreement","Neither Agreement nor Disagreement","Moderate Agreement","Slight Agreement","Slight Disagreement","Moderate Agreement","Strong Agreement","Slight Agreement","Slight Disagreement","Moderate Disagreement","Slight Agreement","Neither Agreement nor Disagreement","Slight Agreement","Moderate Agreement","Neither Agreement nor Disagreement","Strong Disagreement"
"112","A14LCGE6Y8ZLPE:3Q8GYXHFEQ8U39248LZEK2YA7QGC5F","2",7,4,1,"50","<p style=""font-size:100px""><b>v</b></p><p style=""position: absolute; top: 30px; right: 30px; text-align:right; font-size:50px"""">N = 1</p>","v",0,73,498,1,"agree",14,15,15,14,19,"24","male","yes, nice","Moderate Agreement","Moderate Agreement","Strong Disagreement","Neither Agreement nor Disagreement","Moderate Agreement","Slight Agreement","Slight Disagreement","Moderate Agreement","Strong Agreement","Slight Agreement","Slight Disagreement","Moderate Disagreement","Slight Agreement","Neither Agreement nor Disagreement","Slight Agreement","Moderate Agreement","Neither Agreement nor Disagreement","Strong Disagreement"
"113","A14LCGE6Y8ZLPE:3Q8GYXHFEQ8U39248LZEK2YA7QGC5F","2",7,5,1,"50","<p style=""font-size:100px""><b>t</b></p><p style=""position: absolute; top: 30px; right: 30px; text-align:right; font-size:50px"""">N = 1</p>","t",0,73,523,1,"agree",14,15,15,14,19,"24","male","yes, nice","Moderate Agreement","Moderate Agreement","Strong Disagreement","Neither Agreement nor Disagreement","Moderate Agreement","Slight Agreement","Slight Disagreement","Moderate Agreement","Strong Agreement","Slight Agreement","Slight Disagreement","Moderate Disagreement","Slight Agreement","Neither Agreement nor Disagreement","Slight Agreement","Moderate Agreement","Neither Agreement nor Disagreement","Strong Disagreement"
"114","A14LCGE6Y8ZLPE:3Q8GYXHFEQ8U39248LZEK2YA7QGC5F","2",7,6,1,"50","<p style=""font-size:100px""><b>V</b></p><p style=""position: absolute; top: 30px; right: 30px; text-align:right; font-size:50px"""">N = 1</p>","V",0,69,814,0,"agree",14,15,15,14,19,"24","male","yes, nice","Moderate Agreement","Moderate Agreement","Strong Disagreement","Neither Agreement nor Disagreement","Moderate Agreement","Slight Agreement","Slight Disagreement","Moderate Agreement","Strong Agreement","Slight Agreement","Slight Disagreement","Moderate Disagreement","Slight Agreement","Neither Agreement nor Disagreement","Slight Agreement","Moderate Agreement","Neither Agreement nor Disagreement","Strong Disagreement"
"115","A14LCGE6Y8ZLPE:3Q8GYXHFEQ8U39248LZEK2YA7QGC5F","2",7,7,1,"50","<p style=""font-size:100px""><b>G</b></p><p style=""position: absolute; top: 30px; right: 30px; text-align:right; font-size:50px"""">N = 1</p>","G",0,69,698,0,"agree",14,15,15,14,19,"24","male","yes, nice","Moderate Agreement","Moderate Agreement","Strong Disagreement","Neither Agreement nor Disagreement","Moderate Agreement","Slight Agreement","Slight Disagreement","Moderate Agreement","Strong Agreement","Slight Agreement","Slight Disagreement","Moderate Disagreement","Slight Agreement","Neither Agreement nor Disagreement","Slight Agreement","Moderate Agreement","Neither Agreement nor Disagreement","Strong Disagreement"
"116","A14LCGE6Y8ZLPE:3Q8GYXHFEQ8U39248LZEK2YA7QGC5F","2",7,8,1,"50","<p style=""font-size:100px""><b>G</b></p><p style=""position: absolute; top: 30px; right: 30px; text-align:right; font-size:50px"""">N = 1</p>","G",0,69,614,0,"agree",14,15,15,14,19,"24","male","yes, nice","Moderate Agreement","Moderate Agreement","Strong Disagreement","Neither Agreement nor Disagreement","Moderate Agreement","Slight Agreement","Slight Disagreement","Moderate Agreement","Strong Agreement","Slight Agreement","Slight Disagreement","Moderate Disagreement","Slight Agreement","Neither Agreement nor Disagreement","Slight Agreement","Moderate Agreement","Neither Agreement nor Disagreement","Strong Disagreement"
"117","A14LCGE6Y8ZLPE:3Q8GYXHFEQ8U39248LZEK2YA7QGC5F","2",7,9,1,"50","<p style=""font-size:100px""><b>G</b></p><p style=""position: absolute; top: 30px; right: 30px; text-align:right; font-size:50px"""">N = 1</p>","G",0,73,258,1,"agree",14,15,15,14,19,"24","male","yes, nice","Moderate Agreement","Moderate Agreement","Strong Disagreement","Neither Agreement nor Disagreement","Moderate Agreement","Slight Agreement","Slight Disagreement","Moderate Agreement","Strong Agreement","Slight Agreement","Slight Disagreement","Moderate Disagreement","Slight Agreement","Neither Agreement nor Disagreement","Slight Agreement","Moderate Agreement","Neither Agreement nor Disagreement","Strong Disagreement"
"118","A14LCGE6Y8ZLPE:3Q8GYXHFEQ8U39248LZEK2YA7QGC5F","2",7,10,1,"50","<p style=""font-size:100px""><b>V</b></p><p style=""position: absolute; top: 30px; right: 30px; text-align:right; font-size:50px"""">N = 1</p>","V",0,NA,NA,0,"agree",14,15,15,14,19,"24","male","yes, nice","Moderate Agreement","Moderate Agreement","Strong Disagreement","Neither Agreement nor Disagreement","Moderate Agreement","Slight Agreement","Slight Disagreement","Moderate Agreement","Strong Agreement","Slight Agreement","Slight Disagreement","Moderate Disagreement","Slight Agreement","Neither Agreement nor Disagreement","Slight Agreement","Moderate Agreement","Neither Agreement nor Disagreement","Strong Disagreement"
"119","A14LCGE6Y8ZLPE:3Q8GYXHFEQ8U39248LZEK2YA7QGC5F","2",7,11,1,"50","<p style=""font-size:100px""><b>V</b></p><p style=""position: absolute; top: 30px; right: 30px; text-align:right; font-size:50px"""">N = 1</p>","V",0,73,433,1,"agree",14,15,15,14,19,"24","male","yes, nice","Moderate Agreement","Moderate Agreement","Strong Disagreement","Neither Agreement nor Disagreement","Moderate Agreement","Slight Agreement","Slight Disagreement","Moderate Agreement","Strong Agreement","Slight Agreement","Slight Disagreement","Moderate Disagreement","Slight Agreement","Neither Agreement nor Disagreement","Slight Agreement","Moderate Agreement","Neither Agreement nor Disagreement","Strong Disagreement"
"120","A14LCGE6Y8ZLPE:3Q8GYXHFEQ8U39248LZEK2YA7QGC5F","2",7,12,1,"50","<p style=""font-size:100px""><b>V</b></p><p style=""position: absolute; top: 30px; right: 30px; text-align:right; font-size:50px"""">N = 1</p>","V",0,69,413,0,"agree",14,15,15,14,19,"24","male","yes, nice","Moderate Agreement","Moderate Agreement","Strong Disagreement","Neither Agreement nor Disagreement","Moderate Agreement","Slight Agreement","Slight Disagreement","Moderate Agreement","Strong Agreement","Slight Agreement","Slight Disagreement","Moderate Disagreement","Slight Agreement","Neither Agreement nor Disagreement","Slight Agreement","Moderate Agreement","Neither Agreement nor Disagreement","Strong Disagreement"
"121","A14LCGE6Y8ZLPE:3Q8GYXHFEQ8U39248LZEK2YA7QGC5F","2",8,1,2,"50","<p style=""font-size:100px""><b>p</b></p><p style=""position: absolute; top: 30px; right: 30px; text-align:right; font-size:50px"""">N = 2</p>","p",0,73,655,1,"agree",14,10,19,13,9,"24","male","yes, nice","Moderate Agreement","Moderate Agreement","Strong Disagreement","Neither Agreement nor Disagreement","Moderate Agreement","Slight Agreement","Slight Disagreement","Moderate Agreement","Strong Agreement","Slight Agreement","Slight Disagreement","Moderate Disagreement","Slight Agreement","Neither Agreement nor Disagreement","Slight Agreement","Moderate Agreement","Neither Agreement nor Disagreement","Strong Disagreement"
"122","A14LCGE6Y8ZLPE:3Q8GYXHFEQ8U39248LZEK2YA7QGC5F","2",8,2,2,"50","<p style=""font-size:100px""><b>b</b></p><p style=""position: absolute; top: 30px; right: 30px; text-align:right; font-size:50px"""">N = 2</p>","b",0,73,416,1,"agree",14,10,19,13,9,"24","male","yes, nice","Moderate Agreement","Moderate Agreement","Strong Disagreement","Neither Agreement nor Disagreement","Moderate Agreement","Slight Agreement","Slight Disagreement","Moderate Agreement","Strong Agreement","Slight Agreement","Slight Disagreement","Moderate Disagreement","Slight Agreement","Neither Agreement nor Disagreement","Slight Agreement","Moderate Agreement","Neither Agreement nor Disagreement","Strong Disagreement"
"123","A14LCGE6Y8ZLPE:3Q8GYXHFEQ8U39248LZEK2YA7QGC5F","2",8,3,2,"50","<p style=""font-size:100px""><b>D</b></p><p style=""position: absolute; top: 30px; right: 30px; text-align:right; font-size:50px"""">N = 2</p>","D",0,73,491,1,"agree",14,10,19,13,9,"24","male","yes, nice","Moderate Agreement","Moderate Agreement","Strong Disagreement","Neither Agreement nor Disagreement","Moderate Agreement","Slight Agreement","Slight Disagreement","Moderate Agreement","Strong Agreement","Slight Agreement","Slight Disagreement","Moderate Disagreement","Slight Agreement","Neither Agreement nor Disagreement","Slight Agreement","Moderate Agreement","Neither Agreement nor Disagreement","Strong Disagreement"
"124","A14LCGE6Y8ZLPE:3Q8GYXHFEQ8U39248LZEK2YA7QGC5F","2",8,4,2,"50","<p style=""font-size:100px""><b>b</b></p><p style=""position: absolute; top: 30px; right: 30px; text-align:right; font-size:50px"""">N = 2</p>","b",0,69,702,0,"agree",14,10,19,13,9,"24","male","yes, nice","Moderate Agreement","Moderate Agreement","Strong Disagreement","Neither Agreement nor Disagreement","Moderate Agreement","Slight Agreement","Slight Disagreement","Moderate Agreement","Strong Agreement","Slight Agreement","Slight Disagreement","Moderate Disagreement","Slight Agreement","Neither Agreement nor Disagreement","Slight Agreement","Moderate Agreement","Neither Agreement nor Disagreement","Strong Disagreement"
"125","A14LCGE6Y8ZLPE:3Q8GYXHFEQ8U39248LZEK2YA7QGC5F","2",8,5,2,"50","<p style=""font-size:100px""><b>g</b></p><p style=""position: absolute; top: 30px; right: 30px; text-align:right; font-size:50px"""">N = 2</p>","g",0,73,586,1,"agree",14,10,19,13,9,"24","male","yes, nice","Moderate Agreement","Moderate Agreement","Strong Disagreement","Neither Agreement nor Disagreement","Moderate Agreement","Slight Agreement","Slight Disagreement","Moderate Agreement","Strong Agreement","Slight Agreement","Slight Disagreement","Moderate Disagreement","Slight Agreement","Neither Agreement nor Disagreement","Slight Agreement","Moderate Agreement","Neither Agreement nor Disagreement","Strong Disagreement"
"126","A14LCGE6Y8ZLPE:3Q8GYXHFEQ8U39248LZEK2YA7QGC5F","2",8,6,2,"50","<p style=""font-size:100px""><b>b</b></p><p style=""position: absolute; top: 30px; right: 30px; text-align:right; font-size:50px"""">N = 2</p>","b",0,69,1045,0,"agree",14,10,19,13,9,"24","male","yes, nice","Moderate Agreement","Moderate Agreement","Strong Disagreement","Neither Agreement nor Disagreement","Moderate Agreement","Slight Agreement","Slight Disagreement","Moderate Agreement","Strong Agreement","Slight Agreement","Slight Disagreement","Moderate Disagreement","Slight Agreement","Neither Agreement nor Disagreement","Slight Agreement","Moderate Agreement","Neither Agreement nor Disagreement","Strong Disagreement"
"127","A14LCGE6Y8ZLPE:3Q8GYXHFEQ8U39248LZEK2YA7QGC5F","2",8,7,2,"50","<p style=""font-size:100px""><b>t</b></p><p style=""position: absolute; top: 30px; right: 30px; text-align:right; font-size:50px"""">N = 2</p>","t",0,73,576,1,"agree",14,10,19,13,9,"24","male","yes, nice","Moderate Agreement","Moderate Agreement","Strong Disagreement","Neither Agreement nor Disagreement","Moderate Agreement","Slight Agreement","Slight Disagreement","Moderate Agreement","Strong Agreement","Slight Agreement","Slight Disagreement","Moderate Disagreement","Slight Agreement","Neither Agreement nor Disagreement","Slight Agreement","Moderate Agreement","Neither Agreement nor Disagreement","Strong Disagreement"
"128","A14LCGE6Y8ZLPE:3Q8GYXHFEQ8U39248LZEK2YA7QGC5F","2",8,8,2,"50","<p style=""font-size:100px""><b>b</b></p><p style=""position: absolute; top: 30px; right: 30px; text-align:right; font-size:50px"""">N = 2</p>","b",0,69,851,0,"agree",14,10,19,13,9,"24","male","yes, nice","Moderate Agreement","Moderate Agreement","Strong Disagreement","Neither Agreement nor Disagreement","Moderate Agreement","Slight Agreement","Slight Disagreement","Moderate Agreement","Strong Agreement","Slight Agreement","Slight Disagreement","Moderate Disagreement","Slight Agreement","Neither Agreement nor Disagreement","Slight Agreement","Moderate Agreement","Neither Agreement nor Disagreement","Strong Disagreement"
"129","A14LCGE6Y8ZLPE:3Q8GYXHFEQ8U39248LZEK2YA7QGC5F","2",8,9,2,"50","<p style=""font-size:100px""><b>p</b></p><p style=""position: absolute; top: 30px; right: 30px; text-align:right; font-size:50px"""">N = 2</p>","p",0,73,141,1,"agree",14,10,19,13,9,"24","male","yes, nice","Moderate Agreement","Moderate Agreement","Strong Disagreement","Neither Agreement nor Disagreement","Moderate Agreement","Slight Agreement","Slight Disagreement","Moderate Agreement","Strong Agreement","Slight Agreement","Slight Disagreement","Moderate Disagreement","Slight Agreement","Neither Agreement nor Disagreement","Slight Agreement","Moderate Agreement","Neither Agreement nor Disagreement","Strong Disagreement"
"130","A14LCGE6Y8ZLPE:3Q8GYXHFEQ8U39248LZEK2YA7QGC5F","2",8,10,2,"50","<p style=""font-size:100px""><b>D</b></p><p style=""position: absolute; top: 30px; right: 30px; text-align:right; font-size:50px"""">N = 2</p>","D",0,NA,NA,0,"agree",14,10,19,13,9,"24","male","yes, nice","Moderate Agreement","Moderate Agreement","Strong Disagreement","Neither Agreement nor Disagreement","Moderate Agreement","Slight Agreement","Slight Disagreement","Moderate Agreement","Strong Agreement","Slight Agreement","Slight Disagreement","Moderate Disagreement","Slight Agreement","Neither Agreement nor Disagreement","Slight Agreement","Moderate Agreement","Neither Agreement nor Disagreement","Strong Disagreement"
"131","A14LCGE6Y8ZLPE:3Q8GYXHFEQ8U39248LZEK2YA7QGC5F","2",8,11,2,"50","<p style=""font-size:100px""><b>p</b></p><p style=""position: absolute; top: 30px; right: 30px; text-align:right; font-size:50px"""">N = 2</p>","p",0,73,935,1,"agree",14,10,19,13,9,"24","male","yes, nice","Moderate Agreement","Moderate Agreement","Strong Disagreement","Neither Agreement nor Disagreement","Moderate Agreement","Slight Agreement","Slight Disagreement","Moderate Agreement","Strong Agreement","Slight Agreement","Slight Disagreement","Moderate Disagreement","Slight Agreement","Neither Agreement nor Disagreement","Slight Agreement","Moderate Agreement","Neither Agreement nor Disagreement","Strong Disagreement"
"132","A14LCGE6Y8ZLPE:3Q8GYXHFEQ8U39248LZEK2YA7QGC5F","2",8,12,2,"50","<p style=""font-size:100px""><b>V</b></p><p style=""position: absolute; top: 30px; right: 30px; text-align:right; font-size:50px"""">N = 2</p>","V",0,73,556,1,"agree",14,10,19,13,9,"24","male","yes, nice","Moderate Agreement","Moderate Agreement","Strong Disagreement","Neither Agreement nor Disagreement","Moderate Agreement","Slight Agreement","Slight Disagreement","Moderate Agreement","Strong Agreement","Slight Agreement","Slight Disagreement","Moderate Disagreement","Slight Agreement","Neither Agreement nor Disagreement","Slight Agreement","Moderate Agreement","Neither Agreement nor Disagreement","Strong Disagreement"
"133","A14LCGE6Y8ZLPE:3Q8GYXHFEQ8U39248LZEK2YA7QGC5F","2",9,1,2,"50","<p style=""font-size:100px""><b>p</b></p><p style=""position: absolute; top: 30px; right: 30px; text-align:right; font-size:50px"""">N = 2</p>","p",0,73,798,1,"agree",14,15,17,14,19,"24","male","yes, nice","Moderate Agreement","Moderate Agreement","Strong Disagreement","Neither Agreement nor Disagreement","Moderate Agreement","Slight Agreement","Slight Disagreement","Moderate Agreement","Strong Agreement","Slight Agreement","Slight Disagreement","Moderate Disagreement","Slight Agreement","Neither Agreement nor Disagreement","Slight Agreement","Moderate Agreement","Neither Agreement nor Disagreement","Strong Disagreement"
"134","A14LCGE6Y8ZLPE:3Q8GYXHFEQ8U39248LZEK2YA7QGC5F","2",9,2,2,"50","<p style=""font-size:100px""><b>d</b></p><p style=""position: absolute; top: 30px; right: 30px; text-align:right; font-size:50px"""">N = 2</p>","d",0,73,697,1,"agree",14,15,17,14,19,"24","male","yes, nice","Moderate Agreement","Moderate Agreement","Strong Disagreement","Neither Agreement nor Disagreement","Moderate Agreement","Slight Agreement","Slight Disagreement","Moderate Agreement","Strong Agreement","Slight Agreement","Slight Disagreement","Moderate Disagreement","Slight Agreement","Neither Agreement nor Disagreement","Slight Agreement","Moderate Agreement","Neither Agreement nor Disagreement","Strong Disagreement"
"135","A14LCGE6Y8ZLPE:3Q8GYXHFEQ8U39248LZEK2YA7QGC5F","2",9,3,2,"50","<p style=""font-size:100px""><b>p</b></p><p style=""position: absolute; top: 30px; right: 30px; text-align:right; font-size:50px"""">N = 2</p>","p",0,69,461,0,"agree",14,15,17,14,19,"24","male","yes, nice","Moderate Agreement","Moderate Agreement","Strong Disagreement","Neither Agreement nor Disagreement","Moderate Agreement","Slight Agreement","Slight Disagreement","Moderate Agreement","Strong Agreement","Slight Agreement","Slight Disagreement","Moderate Disagreement","Slight Agreement","Neither Agreement nor Disagreement","Slight Agreement","Moderate Agreement","Neither Agreement nor Disagreement","Strong Disagreement"
"136","A14LCGE6Y8ZLPE:3Q8GYXHFEQ8U39248LZEK2YA7QGC5F","2",9,4,2,"50","<p style=""font-size:100px""><b>d</b></p><p style=""position: absolute; top: 30px; right: 30px; text-align:right; font-size:50px"""">N = 2</p>","d",0,69,928,0,"agree",14,15,17,14,19,"24","male","yes, nice","Moderate Agreement","Moderate Agreement","Strong Disagreement","Neither Agreement nor Disagreement","Moderate Agreement","Slight Agreement","Slight Disagreement","Moderate Agreement","Strong Agreement","Slight Agreement","Slight Disagreement","Moderate Disagreement","Slight Agreement","Neither Agreement nor Disagreement","Slight Agreement","Moderate Agreement","Neither Agreement nor Disagreement","Strong Disagreement"
"137","A14LCGE6Y8ZLPE:3Q8GYXHFEQ8U39248LZEK2YA7QGC5F","2",9,5,2,"50","<p style=""font-size:100px""><b>p</b></p><p style=""position: absolute; top: 30px; right: 30px; text-align:right; font-size:50px"""">N = 2</p>","p",0,NA,NA,0,"agree",14,15,17,14,19,"24","male","yes, nice","Moderate Agreement","Moderate Agreement","Strong Disagreement","Neither Agreement nor Disagreement","Moderate Agreement","Slight Agreement","Slight Disagreement","Moderate Agreement","Strong Agreement","Slight Agreement","Slight Disagreement","Moderate Disagreement","Slight Agreement","Neither Agreement nor Disagreement","Slight Agreement","Moderate Agreement","Neither Agreement nor Disagreement","Strong Disagreement"
"138","A14LCGE6Y8ZLPE:3Q8GYXHFEQ8U39248LZEK2YA7QGC5F","2",9,6,2,"50","<p style=""font-size:100px""><b>V</b></p><p style=""position: absolute; top: 30px; right: 30px; text-align:right; font-size:50px"""">N = 2</p>","V",0,73,775,1,"agree",14,15,17,14,19,"24","male","yes, nice","Moderate Agreement","Moderate Agreement","Strong Disagreement","Neither Agreement nor Disagreement","Moderate Agreement","Slight Agreement","Slight Disagreement","Moderate Agreement","Strong Agreement","Slight Agreement","Slight Disagreement","Moderate Disagreement","Slight Agreement","Neither Agreement nor Disagreement","Slight Agreement","Moderate Agreement","Neither Agreement nor Disagreement","Strong Disagreement"
"139","A14LCGE6Y8ZLPE:3Q8GYXHFEQ8U39248LZEK2YA7QGC5F","2",9,7,2,"50","<p style=""font-size:100px""><b>G</b></p><p style=""position: absolute; top: 30px; right: 30px; text-align:right; font-size:50px"""">N = 2</p>","G",0,73,561,1,"agree",14,15,17,14,19,"24","male","yes, nice","Moderate Agreement","Moderate Agreement","Strong Disagreement","Neither Agreement nor Disagreement","Moderate Agreement","Slight Agreement","Slight Disagreement","Moderate Agreement","Strong Agreement","Slight Agreement","Slight Disagreement","Moderate Disagreement","Slight Agreement","Neither Agreement nor Disagreement","Slight Agreement","Moderate Agreement","Neither Agreement nor Disagreement","Strong Disagreement"
"140","A14LCGE6Y8ZLPE:3Q8GYXHFEQ8U39248LZEK2YA7QGC5F","2",9,8,2,"50","<p style=""font-size:100px""><b>t</b></p><p style=""position: absolute; top: 30px; right: 30px; text-align:right; font-size:50px"""">N = 2</p>","t",0,73,518,1,"agree",14,15,17,14,19,"24","male","yes, nice","Moderate Agreement","Moderate Agreement","Strong Disagreement","Neither Agreement nor Disagreement","Moderate Agreement","Slight Agreement","Slight Disagreement","Moderate Agreement","Strong Agreement","Slight Agreement","Slight Disagreement","Moderate Disagreement","Slight Agreement","Neither Agreement nor Disagreement","Slight Agreement","Moderate Agreement","Neither Agreement nor Disagreement","Strong Disagreement"
"141","A14LCGE6Y8ZLPE:3Q8GYXHFEQ8U39248LZEK2YA7QGC5F","2",9,9,2,"50","<p style=""font-size:100px""><b>b</b></p><p style=""position: absolute; top: 30px; right: 30px; text-align:right; font-size:50px"""">N = 2</p>","b",0,73,625,1,"agree",14,15,17,14,19,"24","male","yes, nice","Moderate Agreement","Moderate Agreement","Strong Disagreement","Neither Agreement nor Disagreement","Moderate Agreement","Slight Agreement","Slight Disagreement","Moderate Agreement","Strong Agreement","Slight Agreement","Slight Disagreement","Moderate Disagreement","Slight Agreement","Neither Agreement nor Disagreement","Slight Agreement","Moderate Agreement","Neither Agreement nor Disagreement","Strong Disagreement"
"142","A14LCGE6Y8ZLPE:3Q8GYXHFEQ8U39248LZEK2YA7QGC5F","2",9,10,2,"50","<p style=""font-size:100px""><b>t</b></p><p style=""position: absolute; top: 30px; right: 30px; text-align:right; font-size:50px"""">N = 2</p>","t",0,73,371,1,"agree",14,15,17,14,19,"24","male","yes, nice","Moderate Agreement","Moderate Agreement","Strong Disagreement","Neither Agreement nor Disagreement","Moderate Agreement","Slight Agreement","Slight Disagreement","Moderate Agreement","Strong Agreement","Slight Agreement","Slight Disagreement","Moderate Disagreement","Slight Agreement","Neither Agreement nor Disagreement","Slight Agreement","Moderate Agreement","Neither Agreement nor Disagreement","Strong Disagreement"
