"","subject","run","block","trial","N","reward","stimulus","cue","isTarget","key_press","rt","acc","debrief","performance","frustration","demand","temporal","effort","age","gender","comments","nfc1","nfc2","nfc3","nfc4","nfc5","nfc6","nfc7","nfc8","nfc9","nfc10","nfc11","nfc12","nfc13","nfc14","nfc15","nfc16","nfc17","nfc18"
"1","A1ZPX497XKDVON:3P529IW9KZRF8APZRA5M9XFAQTRLF6","practice",1,1,1,"NA","<p style=""font-size:100px""><b>t</b></p><p style=""position: absolute; top: 30px; right: 30px; text-align:right; font-size:50px"""">N = 1</p>","t",0,73,4954,1,"agree",16,13,19,15,18,"25","female","good","Very Strong Agreement","Strong Agreement","Neither Agreement nor Disagreement","Moderate Agreement","Moderate Agreement","Strong Agreement","Moderate Agreement","Strong Agreement","Moderate Agreement","Very Strong Agreement","Slight Agreement","Strong Agreement","Strong Agreement","Slight Agreement","Moderate Agreement","Neither Agreement nor Disagreement","Neither Agreement nor Disagreement","Strong Disagreement"
"2","A1ZPX497XKDVON:3P529IW9KZRF8APZRA5M9XFAQTRLF6","practice",1,2,1,"NA","<p style=""font-size:100px""><b>d</b></p><p style=""position: absolute; top: 30px; right: 30px; text-align:right; font-size:50px"""">N = 1</p>","d",0,73,1472,1,"agree",16,13,19,15,18,"25","female","good","Very Strong Agreement","Strong Agreement","Neither Agreement nor Disagreement","Moderate Agreement","Moderate Agreement","Strong Agreement","Moderate Agreement","Strong Agreement","Moderate Agreement","Very Strong Agreement","Slight Agreement","Strong Agreement","Strong Agreement","Slight Agreement","Moderate Agreement","Neither Agreement nor Disagreement","Neither Agreement nor Disagreement","Strong Disagreement"
"3","A1ZPX497XKDVON:3P529IW9KZRF8APZRA5M9XFAQTRLF6","practice",1,3,1,"NA","<p style=""font-size:100px""><b>P</b></p><p style=""position: absolute; top: 30px; right: 30px; text-align:right; font-size:50px"""">N = 1</p>","P",0,73,696,1,"agree",16,13,19,15,18,"25","female","good","Very Strong Agreement","Strong Agreement","Neither Agreement nor Disagreement","Moderate Agreement","Moderate Agreement","Strong Agreement","Moderate Agreement","Strong Agreement","Moderate Agreement","Very Strong Agreement","Slight Agreement","Strong Agreement","Strong Agreement","Slight Agreement","Moderate Agreement","Neither Agreement nor Disagreement","Neither Agreement nor Disagreement","Strong Disagreement"
"4","A1ZPX497XKDVON:3P529IW9KZRF8APZRA5M9XFAQTRLF6","practice",1,4,1,"NA","<p style=""font-size:100px""><b>G</b></p><p style=""position: absolute; top: 30px; right: 30px; text-align:right; font-size:50px"""">N = 1</p>","G",0,73,816,1,"agree",16,13,19,15,18,"25","female","good","Very Strong Agreement","Strong Agreement","Neither Agreement nor Disagreement","Moderate Agreement","Moderate Agreement","Strong Agreement","Moderate Agreement","Strong Agreement","Moderate Agreement","Very Strong Agreement","Slight Agreement","Strong Agreement","Strong Agreement","Slight Agreement","Moderate Agreement","Neither Agreement nor Disagreement","Neither Agreement nor Disagreement","Strong Disagreement"
"5","A1ZPX497XKDVON:3P529IW9KZRF8APZRA5M9XFAQTRLF6","practice",1,5,1,"NA","<p style=""font-size:100px""><b>G</b></p><p style=""position: absolute; top: 30px; right: 30px; text-align:right; font-size:50px"""">N = 1</p>","G",1,73,7551,0,"agree",16,13,19,15,18,"25","female","good","Very Strong Agreement","Strong Agreement","Neither Agreement nor Disagreement","Moderate Agreement","Moderate Agreement","Strong Agreement","Moderate Agreement","Strong Agreement","Moderate Agreement","Very Strong Agreement","Slight Agreement","Strong Agreement","Strong Agreement","Slight Agreement","Moderate Agreement","Neither Agreement nor Disagreement","Neither Agreement nor Disagreement","Strong Disagreement"
"6","A1ZPX497XKDVON:3P529IW9KZRF8APZRA5M9XFAQTRLF6","practice",1,6,1,"NA","<p style=""font-size:100px""><b>T</b></p><p style=""position: absolute; top: 30px; right: 30px; text-align:right; font-size:50px"""">N = 1</p>","T",0,73,2753,1,"agree",16,13,19,15,18,"25","female","good","Very Strong Agreement","Strong Agreement","Neither Agreement nor Disagreement","Moderate Agreement","Moderate Agreement","Strong Agreement","Moderate Agreement","Strong Agreement","Moderate Agreement","Very Strong Agreement","Slight Agreement","Strong Agreement","Strong Agreement","Slight Agreement","Moderate Agreement","Neither Agreement nor Disagreement","Neither Agreement nor Disagreement","Strong Disagreement"
"7","A1ZPX497XKDVON:3P529IW9KZRF8APZRA5M9XFAQTRLF6","practice",1,7,1,"NA","<p style=""font-size:100px""><b>d</b></p><p style=""position: absolute; top: 30px; right: 30px; text-align:right; font-size:50px"""">N = 1</p>","d",0,73,1050,1,"agree",16,13,19,15,18,"25","female","good","Very Strong Agreement","Strong Agreement","Neither Agreement nor Disagreement","Moderate Agreement","Moderate Agreement","Strong Agreement","Moderate Agreement","Strong Agreement","Moderate Agreement","Very Strong Agreement","Slight Agreement","Strong Agreement","Strong Agreement","Slight Agreement","Moderate Agreement","Neither Agreement nor Disagreement","Neither Agreement nor Disagreement","Strong Disagreement"
"8","A1ZPX497XKDVON:3P529IW9KZRF8APZRA5M9XFAQTRLF6","practice",1,8,1,"NA","<p style=""font-size:100px""><b>P</b></p><p style=""position: absolute; top: 30px; right: 30px; text-align:right; font-size:50px"""">N = 1</p>","P",0,69,7050,0,"agree",16,13,19,15,18,"25","female","good","Very Strong Agreement","Strong Agreement","Neither Agreement nor Disagreement","Moderate Agreement","Moderate Agreement","Strong Agreement","Moderate Agreement","Strong Agreement","Moderate Agreement","Very Strong Agreement","Slight Agreement","Strong Agreement","Strong Agreement","Slight Agreement","Moderate Agreement","Neither Agreement nor Disagreement","Neither Agreement nor Disagreement","Strong Disagreement"
"9","A1ZPX497XKDVON:3P529IW9KZRF8APZRA5M9XFAQTRLF6","practice",1,9,1,"NA","<p style=""font-size:100px""><b>P</b></p><p style=""position: absolute; top: 30px; right: 30px; text-align:right; font-size:50px"""">N = 1</p>","P",1,69,1889,1,"agree",16,13,19,15,18,"25","female","good","Very Strong Agreement","Strong Agreement","Neither Agreement nor Disagreement","Moderate Agreement","Moderate Agreement","Strong Agreement","Moderate Agreement","Strong Agreement","Moderate Agreement","Very Strong Agreement","Slight Agreement","Strong Agreement","Strong Agreement","Slight Agreement","Moderate Agreement","Neither Agreement nor Disagreement","Neither Agreement nor Disagreement","Strong Disagreement"
"10","A1ZPX497XKDVON:3P529IW9KZRF8APZRA5M9XFAQTRLF6","practice",1,10,1,"NA","<p style=""font-size:100px""><b>P</b></p><p style=""position: absolute; top: 30px; right: 30px; text-align:right; font-size:50px"""">N = 1</p>","P",1,69,863,1,"agree",16,13,19,15,18,"25","female","good","Very Strong Agreement","Strong Agreement","Neither Agreement nor Disagreement","Moderate Agreement","Moderate Agreement","Strong Agreement","Moderate Agreement","Strong Agreement","Moderate Agreement","Very Strong Agreement","Slight Agreement","Strong Agreement","Strong Agreement","Slight Agreement","Moderate Agreement","Neither Agreement nor Disagreement","Neither Agreement nor Disagreement","Strong Disagreement"
"11","A1ZPX497XKDVON:3P529IW9KZRF8APZRA5M9XFAQTRLF6","practice",1,11,1,"NA","<p style=""font-size:100px""><b>t</b></p><p style=""position: absolute; top: 30px; right: 30px; text-align:right; font-size:50px"""">N = 1</p>","t",0,69,748,0,"agree",16,13,19,15,18,"25","female","good","Very Strong Agreement","Strong Agreement","Neither Agreement nor Disagreement","Moderate Agreement","Moderate Agreement","Strong Agreement","Moderate Agreement","Strong Agreement","Moderate Agreement","Very Strong Agreement","Slight Agreement","Strong Agreement","Strong Agreement","Slight Agreement","Moderate Agreement","Neither Agreement nor Disagreement","Neither Agreement nor Disagreement","Strong Disagreement"
"12","A1ZPX497XKDVON:3P529IW9KZRF8APZRA5M9XFAQTRLF6","practice",1,12,1,"NA","<p style=""font-size:100px""><b>t</b></p><p style=""position: absolute; top: 30px; right: 30px; text-align:right; font-size:50px"""">N = 1</p>","t",1,73,938,0,"agree",16,13,19,15,18,"25","female","good","Very Strong Agreement","Strong Agreement","Neither Agreement nor Disagreement","Moderate Agreement","Moderate Agreement","Strong Agreement","Moderate Agreement","Strong Agreement","Moderate Agreement","Very Strong Agreement","Slight Agreement","Strong Agreement","Strong Agreement","Slight Agreement","Moderate Agreement","Neither Agreement nor Disagreement","Neither Agreement nor Disagreement","Strong Disagreement"
"13","A1ZPX497XKDVON:3P529IW9KZRF8APZRA5M9XFAQTRLF6","practice",2,1,2,"NA","<p style=""font-size:100px""><b>D</b></p><p style=""position: absolute; top: 30px; right: 30px; text-align:right; font-size:50px"""">N = 2</p>","D",0,73,794,1,"agree",16,13,19,15,18,"25","female","good","Very Strong Agreement","Strong Agreement","Neither Agreement nor Disagreement","Moderate Agreement","Moderate Agreement","Strong Agreement","Moderate Agreement","Strong Agreement","Moderate Agreement","Very Strong Agreement","Slight Agreement","Strong Agreement","Strong Agreement","Slight Agreement","Moderate Agreement","Neither Agreement nor Disagreement","Neither Agreement nor Disagreement","Strong Disagreement"
"14","A1ZPX497XKDVON:3P529IW9KZRF8APZRA5M9XFAQTRLF6","practice",2,2,2,"NA","<p style=""font-size:100px""><b>P</b></p><p style=""position: absolute; top: 30px; right: 30px; text-align:right; font-size:50px"""">N = 2</p>","P",0,73,507,1,"agree",16,13,19,15,18,"25","female","good","Very Strong Agreement","Strong Agreement","Neither Agreement nor Disagreement","Moderate Agreement","Moderate Agreement","Strong Agreement","Moderate Agreement","Strong Agreement","Moderate Agreement","Very Strong Agreement","Slight Agreement","Strong Agreement","Strong Agreement","Slight Agreement","Moderate Agreement","Neither Agreement nor Disagreement","Neither Agreement nor Disagreement","Strong Disagreement"
"15","A1ZPX497XKDVON:3P529IW9KZRF8APZRA5M9XFAQTRLF6","practice",2,3,2,"NA","<p style=""font-size:100px""><b>P</b></p><p style=""position: absolute; top: 30px; right: 30px; text-align:right; font-size:50px"""">N = 2</p>","P",0,73,534,1,"agree",16,13,19,15,18,"25","female","good","Very Strong Agreement","Strong Agreement","Neither Agreement nor Disagreement","Moderate Agreement","Moderate Agreement","Strong Agreement","Moderate Agreement","Strong Agreement","Moderate Agreement","Very Strong Agreement","Slight Agreement","Strong Agreement","Strong Agreement","Slight Agreement","Moderate Agreement","Neither Agreement nor Disagreement","Neither Agreement nor Disagreement","Strong Disagreement"
"16","A1ZPX497XKDVON:3P529IW9KZRF8APZRA5M9XFAQTRLF6","practice",2,4,2,"NA","<p style=""font-size:100px""><b>P</b></p><p style=""position: absolute; top: 30px; right: 30px; text-align:right; font-size:50px"""">N = 2</p>","P",1,69,991,1,"agree",16,13,19,15,18,"25","female","good","Very Strong Agreement","Strong Agreement","Neither Agreement nor Disagreement","Moderate Agreement","Moderate Agreement","Strong Agreement","Moderate Agreement","Strong Agreement","Moderate Agreement","Very Strong Agreement","Slight Agreement","Strong Agreement","Strong Agreement","Slight Agreement","Moderate Agreement","Neither Agreement nor Disagreement","Neither Agreement nor Disagreement","Strong Disagreement"
"17","A1ZPX497XKDVON:3P529IW9KZRF8APZRA5M9XFAQTRLF6","practice",2,5,2,"NA","<p style=""font-size:100px""><b>P</b></p><p style=""position: absolute; top: 30px; right: 30px; text-align:right; font-size:50px"""">N = 2</p>","P",1,69,607,1,"agree",16,13,19,15,18,"25","female","good","Very Strong Agreement","Strong Agreement","Neither Agreement nor Disagreement","Moderate Agreement","Moderate Agreement","Strong Agreement","Moderate Agreement","Strong Agreement","Moderate Agreement","Very Strong Agreement","Slight Agreement","Strong Agreement","Strong Agreement","Slight Agreement","Moderate Agreement","Neither Agreement nor Disagreement","Neither Agreement nor Disagreement","Strong Disagreement"
"18","A1ZPX497XKDVON:3P529IW9KZRF8APZRA5M9XFAQTRLF6","practice",2,6,2,"NA","<p style=""font-size:100px""><b>T</b></p><p style=""position: absolute; top: 30px; right: 30px; text-align:right; font-size:50px"""">N = 2</p>","T",0,73,1354,1,"agree",16,13,19,15,18,"25","female","good","Very Strong Agreement","Strong Agreement","Neither Agreement nor Disagreement","Moderate Agreement","Moderate Agreement","Strong Agreement","Moderate Agreement","Strong Agreement","Moderate Agreement","Very Strong Agreement","Slight Agreement","Strong Agreement","Strong Agreement","Slight Agreement","Moderate Agreement","Neither Agreement nor Disagreement","Neither Agreement nor Disagreement","Strong Disagreement"
"19","A1ZPX497XKDVON:3P529IW9KZRF8APZRA5M9XFAQTRLF6","practice",2,7,2,"NA","<p style=""font-size:100px""><b>v</b></p><p style=""position: absolute; top: 30px; right: 30px; text-align:right; font-size:50px"""">N = 2</p>","v",0,73,802,1,"agree",16,13,19,15,18,"25","female","good","Very Strong Agreement","Strong Agreement","Neither Agreement nor Disagreement","Moderate Agreement","Moderate Agreement","Strong Agreement","Moderate Agreement","Strong Agreement","Moderate Agreement","Very Strong Agreement","Slight Agreement","Strong Agreement","Strong Agreement","Slight Agreement","Moderate Agreement","Neither Agreement nor Disagreement","Neither Agreement nor Disagreement","Strong Disagreement"
"20","A1ZPX497XKDVON:3P529IW9KZRF8APZRA5M9XFAQTRLF6","practice",2,8,2,"NA","<p style=""font-size:100px""><b>B</b></p><p style=""position: absolute; top: 30px; right: 30px; text-align:right; font-size:50px"""">N = 2</p>","B",0,73,1485,1,"agree",16,13,19,15,18,"25","female","good","Very Strong Agreement","Strong Agreement","Neither Agreement nor Disagreement","Moderate Agreement","Moderate Agreement","Strong Agreement","Moderate Agreement","Strong Agreement","Moderate Agreement","Very Strong Agreement","Slight Agreement","Strong Agreement","Strong Agreement","Slight Agreement","Moderate Agreement","Neither Agreement nor Disagreement","Neither Agreement nor Disagreement","Strong Disagreement"
"21","A1ZPX497XKDVON:3P529IW9KZRF8APZRA5M9XFAQTRLF6","practice",2,9,2,"NA","<p style=""font-size:100px""><b>v</b></p><p style=""position: absolute; top: 30px; right: 30px; text-align:right; font-size:50px"""">N = 2</p>","v",1,73,1152,0,"agree",16,13,19,15,18,"25","female","good","Very Strong Agreement","Strong Agreement","Neither Agreement nor Disagreement","Moderate Agreement","Moderate Agreement","Strong Agreement","Moderate Agreement","Strong Agreement","Moderate Agreement","Very Strong Agreement","Slight Agreement","Strong Agreement","Strong Agreement","Slight Agreement","Moderate Agreement","Neither Agreement nor Disagreement","Neither Agreement nor Disagreement","Strong Disagreement"
"22","A1ZPX497XKDVON:3P529IW9KZRF8APZRA5M9XFAQTRLF6","practice",2,10,2,"NA","<p style=""font-size:100px""><b>D</b></p><p style=""position: absolute; top: 30px; right: 30px; text-align:right; font-size:50px"""">N = 2</p>","D",0,73,846,1,"agree",16,13,19,15,18,"25","female","good","Very Strong Agreement","Strong Agreement","Neither Agreement nor Disagreement","Moderate Agreement","Moderate Agreement","Strong Agreement","Moderate Agreement","Strong Agreement","Moderate Agreement","Very Strong Agreement","Slight Agreement","Strong Agreement","Strong Agreement","Slight Agreement","Moderate Agreement","Neither Agreement nor Disagreement","Neither Agreement nor Disagreement","Strong Disagreement"
"23","A1ZPX497XKDVON:3P529IW9KZRF8APZRA5M9XFAQTRLF6","practice",2,11,2,"NA","<p style=""font-size:100px""><b>v</b></p><p style=""position: absolute; top: 30px; right: 30px; text-align:right; font-size:50px"""">N = 2</p>","v",1,69,975,1,"agree",16,13,19,15,18,"25","female","good","Very Strong Agreement","Strong Agreement","Neither Agreement nor Disagreement","Moderate Agreement","Moderate Agreement","Strong Agreement","Moderate Agreement","Strong Agreement","Moderate Agreement","Very Strong Agreement","Slight Agreement","Strong Agreement","Strong Agreement","Slight Agreement","Moderate Agreement","Neither Agreement nor Disagreement","Neither Agreement nor Disagreement","Strong Disagreement"
"24","A1ZPX497XKDVON:3P529IW9KZRF8APZRA5M9XFAQTRLF6","practice",2,12,2,"NA","<p style=""font-size:100px""><b>p</b></p><p style=""position: absolute; top: 30px; right: 30px; text-align:right; font-size:50px"""">N = 2</p>","p",0,73,896,1,"agree",16,13,19,15,18,"25","female","good","Very Strong Agreement","Strong Agreement","Neither Agreement nor Disagreement","Moderate Agreement","Moderate Agreement","Strong Agreement","Moderate Agreement","Strong Agreement","Moderate Agreement","Very Strong Agreement","Slight Agreement","Strong Agreement","Strong Agreement","Slight Agreement","Moderate Agreement","Neither Agreement nor Disagreement","Neither Agreement nor Disagreement","Strong Disagreement"
"25","A1ZPX497XKDVON:3P529IW9KZRF8APZRA5M9XFAQTRLF6","practice",3,1,3,"NA","<p style=""font-size:100px""><b>P</b></p><p style=""position: absolute; top: 30px; right: 30px; text-align:right; font-size:50px"""">N = 3</p>","P",0,73,853,1,"agree",16,13,19,15,18,"25","female","good","Very Strong Agreement","Strong Agreement","Neither Agreement nor Disagreement","Moderate Agreement","Moderate Agreement","Strong Agreement","Moderate Agreement","Strong Agreement","Moderate Agreement","Very Strong Agreement","Slight Agreement","Strong Agreement","Strong Agreement","Slight Agreement","Moderate Agreement","Neither Agreement nor Disagreement","Neither Agreement nor Disagreement","Strong Disagreement"
"26","A1ZPX497XKDVON:3P529IW9KZRF8APZRA5M9XFAQTRLF6","practice",3,2,3,"NA","<p style=""font-size:100px""><b>V</b></p><p style=""position: absolute; top: 30px; right: 30px; text-align:right; font-size:50px"""">N = 3</p>","V",0,73,528,1,"agree",16,13,19,15,18,"25","female","good","Very Strong Agreement","Strong Agreement","Neither Agreement nor Disagreement","Moderate Agreement","Moderate Agreement","Strong Agreement","Moderate Agreement","Strong Agreement","Moderate Agreement","Very Strong Agreement","Slight Agreement","Strong Agreement","Strong Agreement","Slight Agreement","Moderate Agreement","Neither Agreement nor Disagreement","Neither Agreement nor Disagreement","Strong Disagreement"
"27","A1ZPX497XKDVON:3P529IW9KZRF8APZRA5M9XFAQTRLF6","practice",3,3,3,"NA","<p style=""font-size:100px""><b>d</b></p><p style=""position: absolute; top: 30px; right: 30px; text-align:right; font-size:50px"""">N = 3</p>","d",0,73,926,1,"agree",16,13,19,15,18,"25","female","good","Very Strong Agreement","Strong Agreement","Neither Agreement nor Disagreement","Moderate Agreement","Moderate Agreement","Strong Agreement","Moderate Agreement","Strong Agreement","Moderate Agreement","Very Strong Agreement","Slight Agreement","Strong Agreement","Strong Agreement","Slight Agreement","Moderate Agreement","Neither Agreement nor Disagreement","Neither Agreement nor Disagreement","Strong Disagreement"
"28","A1ZPX497XKDVON:3P529IW9KZRF8APZRA5M9XFAQTRLF6","practice",3,4,3,"NA","<p style=""font-size:100px""><b>G</b></p><p style=""position: absolute; top: 30px; right: 30px; text-align:right; font-size:50px"""">N = 3</p>","G",0,73,633,1,"agree",16,13,19,15,18,"25","female","good","Very Strong Agreement","Strong Agreement","Neither Agreement nor Disagreement","Moderate Agreement","Moderate Agreement","Strong Agreement","Moderate Agreement","Strong Agreement","Moderate Agreement","Very Strong Agreement","Slight Agreement","Strong Agreement","Strong Agreement","Slight Agreement","Moderate Agreement","Neither Agreement nor Disagreement","Neither Agreement nor Disagreement","Strong Disagreement"
"29","A1ZPX497XKDVON:3P529IW9KZRF8APZRA5M9XFAQTRLF6","practice",3,5,3,"NA","<p style=""font-size:100px""><b>D</b></p><p style=""position: absolute; top: 30px; right: 30px; text-align:right; font-size:50px"""">N = 3</p>","D",0,73,728,1,"agree",16,13,19,15,18,"25","female","good","Very Strong Agreement","Strong Agreement","Neither Agreement nor Disagreement","Moderate Agreement","Moderate Agreement","Strong Agreement","Moderate Agreement","Strong Agreement","Moderate Agreement","Very Strong Agreement","Slight Agreement","Strong Agreement","Strong Agreement","Slight Agreement","Moderate Agreement","Neither Agreement nor Disagreement","Neither Agreement nor Disagreement","Strong Disagreement"
"30","A1ZPX497XKDVON:3P529IW9KZRF8APZRA5M9XFAQTRLF6","practice",3,6,3,"NA","<p style=""font-size:100px""><b>d</b></p><p style=""position: absolute; top: 30px; right: 30px; text-align:right; font-size:50px"""">N = 3</p>","d",1,73,497,0,"agree",16,13,19,15,18,"25","female","good","Very Strong Agreement","Strong Agreement","Neither Agreement nor Disagreement","Moderate Agreement","Moderate Agreement","Strong Agreement","Moderate Agreement","Strong Agreement","Moderate Agreement","Very Strong Agreement","Slight Agreement","Strong Agreement","Strong Agreement","Slight Agreement","Moderate Agreement","Neither Agreement nor Disagreement","Neither Agreement nor Disagreement","Strong Disagreement"
"31","A1ZPX497XKDVON:3P529IW9KZRF8APZRA5M9XFAQTRLF6","practice",3,7,3,"NA","<p style=""font-size:100px""><b>t</b></p><p style=""position: absolute; top: 30px; right: 30px; text-align:right; font-size:50px"""">N = 3</p>","t",0,73,581,1,"agree",16,13,19,15,18,"25","female","good","Very Strong Agreement","Strong Agreement","Neither Agreement nor Disagreement","Moderate Agreement","Moderate Agreement","Strong Agreement","Moderate Agreement","Strong Agreement","Moderate Agreement","Very Strong Agreement","Slight Agreement","Strong Agreement","Strong Agreement","Slight Agreement","Moderate Agreement","Neither Agreement nor Disagreement","Neither Agreement nor Disagreement","Strong Disagreement"
"32","A1ZPX497XKDVON:3P529IW9KZRF8APZRA5M9XFAQTRLF6","practice",3,8,3,"NA","<p style=""font-size:100px""><b>G</b></p><p style=""position: absolute; top: 30px; right: 30px; text-align:right; font-size:50px"""">N = 3</p>","G",0,73,745,1,"agree",16,13,19,15,18,"25","female","good","Very Strong Agreement","Strong Agreement","Neither Agreement nor Disagreement","Moderate Agreement","Moderate Agreement","Strong Agreement","Moderate Agreement","Strong Agreement","Moderate Agreement","Very Strong Agreement","Slight Agreement","Strong Agreement","Strong Agreement","Slight Agreement","Moderate Agreement","Neither Agreement nor Disagreement","Neither Agreement nor Disagreement","Strong Disagreement"
"33","A1ZPX497XKDVON:3P529IW9KZRF8APZRA5M9XFAQTRLF6","practice",3,9,3,"NA","<p style=""font-size:100px""><b>d</b></p><p style=""position: absolute; top: 30px; right: 30px; text-align:right; font-size:50px"""">N = 3</p>","d",1,69,799,1,"agree",16,13,19,15,18,"25","female","good","Very Strong Agreement","Strong Agreement","Neither Agreement nor Disagreement","Moderate Agreement","Moderate Agreement","Strong Agreement","Moderate Agreement","Strong Agreement","Moderate Agreement","Very Strong Agreement","Slight Agreement","Strong Agreement","Strong Agreement","Slight Agreement","Moderate Agreement","Neither Agreement nor Disagreement","Neither Agreement nor Disagreement","Strong Disagreement"
"34","A1ZPX497XKDVON:3P529IW9KZRF8APZRA5M9XFAQTRLF6","practice",3,10,3,"NA","<p style=""font-size:100px""><b>t</b></p><p style=""position: absolute; top: 30px; right: 30px; text-align:right; font-size:50px"""">N = 3</p>","t",1,69,784,1,"agree",16,13,19,15,18,"25","female","good","Very Strong Agreement","Strong Agreement","Neither Agreement nor Disagreement","Moderate Agreement","Moderate Agreement","Strong Agreement","Moderate Agreement","Strong Agreement","Moderate Agreement","Very Strong Agreement","Slight Agreement","Strong Agreement","Strong Agreement","Slight Agreement","Moderate Agreement","Neither Agreement nor Disagreement","Neither Agreement nor Disagreement","Strong Disagreement"
"35","A1ZPX497XKDVON:3P529IW9KZRF8APZRA5M9XFAQTRLF6","practice",3,11,3,"NA","<p style=""font-size:100px""><b>G</b></p><p style=""position: absolute; top: 30px; right: 30px; text-align:right; font-size:50px"""">N = 3</p>","G",1,69,730,1,"agree",16,13,19,15,18,"25","female","good","Very Strong Agreement","Strong Agreement","Neither Agreement nor Disagreement","Moderate Agreement","Moderate Agreement","Strong Agreement","Moderate Agreement","Strong Agreement","Moderate Agreement","Very Strong Agreement","Slight Agreement","Strong Agreement","Strong Agreement","Slight Agreement","Moderate Agreement","Neither Agreement nor Disagreement","Neither Agreement nor Disagreement","Strong Disagreement"
"36","A1ZPX497XKDVON:3P529IW9KZRF8APZRA5M9XFAQTRLF6","practice",3,12,3,"NA","<p style=""font-size:100px""><b>p</b></p><p style=""position: absolute; top: 30px; right: 30px; text-align:right; font-size:50px"""">N = 3</p>","p",0,69,1041,0,"agree",16,13,19,15,18,"25","female","good","Very Strong Agreement","Strong Agreement","Neither Agreement nor Disagreement","Moderate Agreement","Moderate Agreement","Strong Agreement","Moderate Agreement","Strong Agreement","Moderate Agreement","Very Strong Agreement","Slight Agreement","Strong Agreement","Strong Agreement","Slight Agreement","Moderate Agreement","Neither Agreement nor Disagreement","Neither Agreement nor Disagreement","Strong Disagreement"
"37","A1ZPX497XKDVON:3P529IW9KZRF8APZRA5M9XFAQTRLF6","1",1,1,1,"50","<p style=""font-size:100px""><b>d</b></p><p style=""position: absolute; top: 30px; right: 30px; text-align:right; font-size:50px"""">N = 1</p>","d",0,NA,NA,0,"agree",16,13,19,15,18,"25","female","good","Very Strong Agreement","Strong Agreement","Neither Agreement nor Disagreement","Moderate Agreement","Moderate Agreement","Strong Agreement","Moderate Agreement","Strong Agreement","Moderate Agreement","Very Strong Agreement","Slight Agreement","Strong Agreement","Strong Agreement","Slight Agreement","Moderate Agreement","Neither Agreement nor Disagreement","Neither Agreement nor Disagreement","Strong Disagreement"
"38","A1ZPX497XKDVON:3P529IW9KZRF8APZRA5M9XFAQTRLF6","1",1,2,1,"50","<p style=""font-size:100px""><b>v</b></p><p style=""position: absolute; top: 30px; right: 30px; text-align:right; font-size:50px"""">N = 1</p>","v",0,NA,NA,0,"agree",16,13,19,15,18,"25","female","good","Very Strong Agreement","Strong Agreement","Neither Agreement nor Disagreement","Moderate Agreement","Moderate Agreement","Strong Agreement","Moderate Agreement","Strong Agreement","Moderate Agreement","Very Strong Agreement","Slight Agreement","Strong Agreement","Strong Agreement","Slight Agreement","Moderate Agreement","Neither Agreement nor Disagreement","Neither Agreement nor Disagreement","Strong Disagreement"
"39","A1ZPX497XKDVON:3P529IW9KZRF8APZRA5M9XFAQTRLF6","1",1,3,1,"50","<p style=""font-size:100px""><b>v</b></p><p style=""position: absolute; top: 30px; right: 30px; text-align:right; font-size:50px"""">N = 1</p>","v",0,69,903,0,"agree",16,13,19,15,18,"25","female","good","Very Strong Agreement","Strong Agreement","Neither Agreement nor Disagreement","Moderate Agreement","Moderate Agreement","Strong Agreement","Moderate Agreement","Strong Agreement","Moderate Agreement","Very Strong Agreement","Slight Agreement","Strong Agreement","Strong Agreement","Slight Agreement","Moderate Agreement","Neither Agreement nor Disagreement","Neither Agreement nor Disagreement","Strong Disagreement"
"40","A1ZPX497XKDVON:3P529IW9KZRF8APZRA5M9XFAQTRLF6","1",1,4,1,"50","<p style=""font-size:100px""><b>t</b></p><p style=""position: absolute; top: 30px; right: 30px; text-align:right; font-size:50px"""">N = 1</p>","t",0,73,616,1,"agree",16,13,19,15,18,"25","female","good","Very Strong Agreement","Strong Agreement","Neither Agreement nor Disagreement","Moderate Agreement","Moderate Agreement","Strong Agreement","Moderate Agreement","Strong Agreement","Moderate Agreement","Very Strong Agreement","Slight Agreement","Strong Agreement","Strong Agreement","Slight Agreement","Moderate Agreement","Neither Agreement nor Disagreement","Neither Agreement nor Disagreement","Strong Disagreement"
"41","A1ZPX497XKDVON:3P529IW9KZRF8APZRA5M9XFAQTRLF6","1",1,5,1,"50","<p style=""font-size:100px""><b>d</b></p><p style=""position: absolute; top: 30px; right: 30px; text-align:right; font-size:50px"""">N = 1</p>","d",0,73,637,1,"agree",16,13,19,15,18,"25","female","good","Very Strong Agreement","Strong Agreement","Neither Agreement nor Disagreement","Moderate Agreement","Moderate Agreement","Strong Agreement","Moderate Agreement","Strong Agreement","Moderate Agreement","Very Strong Agreement","Slight Agreement","Strong Agreement","Strong Agreement","Slight Agreement","Moderate Agreement","Neither Agreement nor Disagreement","Neither Agreement nor Disagreement","Strong Disagreement"
"42","A1ZPX497XKDVON:3P529IW9KZRF8APZRA5M9XFAQTRLF6","1",1,6,1,"50","<p style=""font-size:100px""><b>d</b></p><p style=""position: absolute; top: 30px; right: 30px; text-align:right; font-size:50px"""">N = 1</p>","d",0,69,582,0,"agree",16,13,19,15,18,"25","female","good","Very Strong Agreement","Strong Agreement","Neither Agreement nor Disagreement","Moderate Agreement","Moderate Agreement","Strong Agreement","Moderate Agreement","Strong Agreement","Moderate Agreement","Very Strong Agreement","Slight Agreement","Strong Agreement","Strong Agreement","Slight Agreement","Moderate Agreement","Neither Agreement nor Disagreement","Neither Agreement nor Disagreement","Strong Disagreement"
"43","A1ZPX497XKDVON:3P529IW9KZRF8APZRA5M9XFAQTRLF6","1",1,7,1,"50","<p style=""font-size:100px""><b>P</b></p><p style=""position: absolute; top: 30px; right: 30px; text-align:right; font-size:50px"""">N = 1</p>","P",0,73,750,1,"agree",16,13,19,15,18,"25","female","good","Very Strong Agreement","Strong Agreement","Neither Agreement nor Disagreement","Moderate Agreement","Moderate Agreement","Strong Agreement","Moderate Agreement","Strong Agreement","Moderate Agreement","Very Strong Agreement","Slight Agreement","Strong Agreement","Strong Agreement","Slight Agreement","Moderate Agreement","Neither Agreement nor Disagreement","Neither Agreement nor Disagreement","Strong Disagreement"
"44","A1ZPX497XKDVON:3P529IW9KZRF8APZRA5M9XFAQTRLF6","1",1,8,1,"50","<p style=""font-size:100px""><b>b</b></p><p style=""position: absolute; top: 30px; right: 30px; text-align:right; font-size:50px"""">N = 1</p>","b",0,73,802,1,"agree",16,13,19,15,18,"25","female","good","Very Strong Agreement","Strong Agreement","Neither Agreement nor Disagreement","Moderate Agreement","Moderate Agreement","Strong Agreement","Moderate Agreement","Strong Agreement","Moderate Agreement","Very Strong Agreement","Slight Agreement","Strong Agreement","Strong Agreement","Slight Agreement","Moderate Agreement","Neither Agreement nor Disagreement","Neither Agreement nor Disagreement","Strong Disagreement"
"45","A1ZPX497XKDVON:3P529IW9KZRF8APZRA5M9XFAQTRLF6","1",1,9,1,"50","<p style=""font-size:100px""><b>p</b></p><p style=""position: absolute; top: 30px; right: 30px; text-align:right; font-size:50px"""">N = 1</p>","p",0,69,659,0,"agree",16,13,19,15,18,"25","female","good","Very Strong Agreement","Strong Agreement","Neither Agreement nor Disagreement","Moderate Agreement","Moderate Agreement","Strong Agreement","Moderate Agreement","Strong Agreement","Moderate Agreement","Very Strong Agreement","Slight Agreement","Strong Agreement","Strong Agreement","Slight Agreement","Moderate Agreement","Neither Agreement nor Disagreement","Neither Agreement nor Disagreement","Strong Disagreement"
"46","A1ZPX497XKDVON:3P529IW9KZRF8APZRA5M9XFAQTRLF6","1",1,10,1,"50","<p style=""font-size:100px""><b>p</b></p><p style=""position: absolute; top: 30px; right: 30px; text-align:right; font-size:50px"""">N = 1</p>","p",0,69,687,0,"agree",16,13,19,15,18,"25","female","good","Very Strong Agreement","Strong Agreement","Neither Agreement nor Disagreement","Moderate Agreement","Moderate Agreement","Strong Agreement","Moderate Agreement","Strong Agreement","Moderate Agreement","Very Strong Agreement","Slight Agreement","Strong Agreement","Strong Agreement","Slight Agreement","Moderate Agreement","Neither Agreement nor Disagreement","Neither Agreement nor Disagreement","Strong Disagreement"
"47","A1ZPX497XKDVON:3P529IW9KZRF8APZRA5M9XFAQTRLF6","1",1,11,1,"50","<p style=""font-size:100px""><b>D</b></p><p style=""position: absolute; top: 30px; right: 30px; text-align:right; font-size:50px"""">N = 1</p>","D",0,73,537,1,"agree",16,13,19,15,18,"25","female","good","Very Strong Agreement","Strong Agreement","Neither Agreement nor Disagreement","Moderate Agreement","Moderate Agreement","Strong Agreement","Moderate Agreement","Strong Agreement","Moderate Agreement","Very Strong Agreement","Slight Agreement","Strong Agreement","Strong Agreement","Slight Agreement","Moderate Agreement","Neither Agreement nor Disagreement","Neither Agreement nor Disagreement","Strong Disagreement"
"48","A1ZPX497XKDVON:3P529IW9KZRF8APZRA5M9XFAQTRLF6","1",1,12,1,"50","<p style=""font-size:100px""><b>D</b></p><p style=""position: absolute; top: 30px; right: 30px; text-align:right; font-size:50px"""">N = 1</p>","D",0,69,602,0,"agree",16,13,19,15,18,"25","female","good","Very Strong Agreement","Strong Agreement","Neither Agreement nor Disagreement","Moderate Agreement","Moderate Agreement","Strong Agreement","Moderate Agreement","Strong Agreement","Moderate Agreement","Very Strong Agreement","Slight Agreement","Strong Agreement","Strong Agreement","Slight Agreement","Moderate Agreement","Neither Agreement nor Disagreement","Neither Agreement nor Disagreement","Strong Disagreement"
"49","A1ZPX497XKDVON:3P529IW9KZRF8APZRA5M9XFAQTRLF6","1",2,1,3,"5","<p style=""font-size:100px""><b>t</b></p><p style=""position: absolute; top: 30px; right: 30px; text-align:right; font-size:50px"""">N = 3</p>","t",0,73,567,1,"agree",8,15,18,12,16,"25","female","good","Very Strong Agreement","Strong Agreement","Neither Agreement nor Disagreement","Moderate Agreement","Moderate Agreement","Strong Agreement","Moderate Agreement","Strong Agreement","Moderate Agreement","Very Strong Agreement","Slight Agreement","Strong Agreement","Strong Agreement","Slight Agreement","Moderate Agreement","Neither Agreement nor Disagreement","Neither Agreement nor Disagreement","Strong Disagreement"
"50","A1ZPX497XKDVON:3P529IW9KZRF8APZRA5M9XFAQTRLF6","1",2,2,3,"5","<p style=""font-size:100px""><b>b</b></p><p style=""position: absolute; top: 30px; right: 30px; text-align:right; font-size:50px"""">N = 3</p>","b",0,NA,NA,0,"agree",8,15,18,12,16,"25","female","good","Very Strong Agreement","Strong Agreement","Neither Agreement nor Disagreement","Moderate Agreement","Moderate Agreement","Strong Agreement","Moderate Agreement","Strong Agreement","Moderate Agreement","Very Strong Agreement","Slight Agreement","Strong Agreement","Strong Agreement","Slight Agreement","Moderate Agreement","Neither Agreement nor Disagreement","Neither Agreement nor Disagreement","Strong Disagreement"
"51","A1ZPX497XKDVON:3P529IW9KZRF8APZRA5M9XFAQTRLF6","1",2,3,3,"5","<p style=""font-size:100px""><b>P</b></p><p style=""position: absolute; top: 30px; right: 30px; text-align:right; font-size:50px"""">N = 3</p>","P",0,NA,NA,0,"agree",8,15,18,12,16,"25","female","good","Very Strong Agreement","Strong Agreement","Neither Agreement nor Disagreement","Moderate Agreement","Moderate Agreement","Strong Agreement","Moderate Agreement","Strong Agreement","Moderate Agreement","Very Strong Agreement","Slight Agreement","Strong Agreement","Strong Agreement","Slight Agreement","Moderate Agreement","Neither Agreement nor Disagreement","Neither Agreement nor Disagreement","Strong Disagreement"
"52","A1ZPX497XKDVON:3P529IW9KZRF8APZRA5M9XFAQTRLF6","1",2,4,3,"5","<p style=""font-size:100px""><b>t</b></p><p style=""position: absolute; top: 30px; right: 30px; text-align:right; font-size:50px"""">N = 3</p>","t",0,69,679,0,"agree",8,15,18,12,16,"25","female","good","Very Strong Agreement","Strong Agreement","Neither Agreement nor Disagreement","Moderate Agreement","Moderate Agreement","Strong Agreement","Moderate Agreement","Strong Agreement","Moderate Agreement","Very Strong Agreement","Slight Agreement","Strong Agreement","Strong Agreement","Slight Agreement","Moderate Agreement","Neither Agreement nor Disagreement","Neither Agreement nor Disagreement","Strong Disagreement"
"53","A1ZPX497XKDVON:3P529IW9KZRF8APZRA5M9XFAQTRLF6","1",2,5,3,"5","<p style=""font-size:100px""><b>d</b></p><p style=""position: absolute; top: 30px; right: 30px; text-align:right; font-size:50px"""">N = 3</p>","d",0,69,813,0,"agree",8,15,18,12,16,"25","female","good","Very Strong Agreement","Strong Agreement","Neither Agreement nor Disagreement","Moderate Agreement","Moderate Agreement","Strong Agreement","Moderate Agreement","Strong Agreement","Moderate Agreement","Very Strong Agreement","Slight Agreement","Strong Agreement","Strong Agreement","Slight Agreement","Moderate Agreement","Neither Agreement nor Disagreement","Neither Agreement nor Disagreement","Strong Disagreement"
"54","A1ZPX497XKDVON:3P529IW9KZRF8APZRA5M9XFAQTRLF6","1",2,6,3,"5","<p style=""font-size:100px""><b>d</b></p><p style=""position: absolute; top: 30px; right: 30px; text-align:right; font-size:50px"""">N = 3</p>","d",0,69,542,0,"agree",8,15,18,12,16,"25","female","good","Very Strong Agreement","Strong Agreement","Neither Agreement nor Disagreement","Moderate Agreement","Moderate Agreement","Strong Agreement","Moderate Agreement","Strong Agreement","Moderate Agreement","Very Strong Agreement","Slight Agreement","Strong Agreement","Strong Agreement","Slight Agreement","Moderate Agreement","Neither Agreement nor Disagreement","Neither Agreement nor Disagreement","Strong Disagreement"
"55","A1ZPX497XKDVON:3P529IW9KZRF8APZRA5M9XFAQTRLF6","1",2,7,3,"5","<p style=""font-size:100px""><b>t</b></p><p style=""position: absolute; top: 30px; right: 30px; text-align:right; font-size:50px"""">N = 3</p>","t",0,69,813,0,"agree",8,15,18,12,16,"25","female","good","Very Strong Agreement","Strong Agreement","Neither Agreement nor Disagreement","Moderate Agreement","Moderate Agreement","Strong Agreement","Moderate Agreement","Strong Agreement","Moderate Agreement","Very Strong Agreement","Slight Agreement","Strong Agreement","Strong Agreement","Slight Agreement","Moderate Agreement","Neither Agreement nor Disagreement","Neither Agreement nor Disagreement","Strong Disagreement"
"56","A1ZPX497XKDVON:3P529IW9KZRF8APZRA5M9XFAQTRLF6","1",2,8,3,"5","<p style=""font-size:100px""><b>d</b></p><p style=""position: absolute; top: 30px; right: 30px; text-align:right; font-size:50px"""">N = 3</p>","d",0,69,726,0,"agree",8,15,18,12,16,"25","female","good","Very Strong Agreement","Strong Agreement","Neither Agreement nor Disagreement","Moderate Agreement","Moderate Agreement","Strong Agreement","Moderate Agreement","Strong Agreement","Moderate Agreement","Very Strong Agreement","Slight Agreement","Strong Agreement","Strong Agreement","Slight Agreement","Moderate Agreement","Neither Agreement nor Disagreement","Neither Agreement nor Disagreement","Strong Disagreement"
"57","A1ZPX497XKDVON:3P529IW9KZRF8APZRA5M9XFAQTRLF6","1",2,9,3,"5","<p style=""font-size:100px""><b>G</b></p><p style=""position: absolute; top: 30px; right: 30px; text-align:right; font-size:50px"""">N = 3</p>","G",0,73,700,1,"agree",8,15,18,12,16,"25","female","good","Very Strong Agreement","Strong Agreement","Neither Agreement nor Disagreement","Moderate Agreement","Moderate Agreement","Strong Agreement","Moderate Agreement","Strong Agreement","Moderate Agreement","Very Strong Agreement","Slight Agreement","Strong Agreement","Strong Agreement","Slight Agreement","Moderate Agreement","Neither Agreement nor Disagreement","Neither Agreement nor Disagreement","Strong Disagreement"
"58","A1ZPX497XKDVON:3P529IW9KZRF8APZRA5M9XFAQTRLF6","1",2,10,3,"5","<p style=""font-size:100px""><b>D</b></p><p style=""position: absolute; top: 30px; right: 30px; text-align:right; font-size:50px"""">N = 3</p>","D",0,69,989,0,"agree",8,15,18,12,16,"25","female","good","Very Strong Agreement","Strong Agreement","Neither Agreement nor Disagreement","Moderate Agreement","Moderate Agreement","Strong Agreement","Moderate Agreement","Strong Agreement","Moderate Agreement","Very Strong Agreement","Slight Agreement","Strong Agreement","Strong Agreement","Slight Agreement","Moderate Agreement","Neither Agreement nor Disagreement","Neither Agreement nor Disagreement","Strong Disagreement"
"59","A1ZPX497XKDVON:3P529IW9KZRF8APZRA5M9XFAQTRLF6","1",2,11,3,"5","<p style=""font-size:100px""><b>P</b></p><p style=""position: absolute; top: 30px; right: 30px; text-align:right; font-size:50px"""">N = 3</p>","P",0,73,759,1,"agree",8,15,18,12,16,"25","female","good","Very Strong Agreement","Strong Agreement","Neither Agreement nor Disagreement","Moderate Agreement","Moderate Agreement","Strong Agreement","Moderate Agreement","Strong Agreement","Moderate Agreement","Very Strong Agreement","Slight Agreement","Strong Agreement","Strong Agreement","Slight Agreement","Moderate Agreement","Neither Agreement nor Disagreement","Neither Agreement nor Disagreement","Strong Disagreement"
"60","A1ZPX497XKDVON:3P529IW9KZRF8APZRA5M9XFAQTRLF6","1",2,12,3,"5","<p style=""font-size:100px""><b>G</b></p><p style=""position: absolute; top: 30px; right: 30px; text-align:right; font-size:50px"""">N = 3</p>","G",0,NA,NA,0,"agree",8,15,18,12,16,"25","female","good","Very Strong Agreement","Strong Agreement","Neither Agreement nor Disagreement","Moderate Agreement","Moderate Agreement","Strong Agreement","Moderate Agreement","Strong Agreement","Moderate Agreement","Very Strong Agreement","Slight Agreement","Strong Agreement","Strong Agreement","Slight Agreement","Moderate Agreement","Neither Agreement nor Disagreement","Neither Agreement nor Disagreement","Strong Disagreement"
"61","A1ZPX497XKDVON:3P529IW9KZRF8APZRA5M9XFAQTRLF6","1",3,1,3,"5","<p style=""font-size:100px""><b>B</b></p><p style=""position: absolute; top: 30px; right: 30px; text-align:right; font-size:50px"""">N = 3</p>","B",0,73,691,1,"agree",12,16,16,12,17,"25","female","good","Very Strong Agreement","Strong Agreement","Neither Agreement nor Disagreement","Moderate Agreement","Moderate Agreement","Strong Agreement","Moderate Agreement","Strong Agreement","Moderate Agreement","Very Strong Agreement","Slight Agreement","Strong Agreement","Strong Agreement","Slight Agreement","Moderate Agreement","Neither Agreement nor Disagreement","Neither Agreement nor Disagreement","Strong Disagreement"
"62","A1ZPX497XKDVON:3P529IW9KZRF8APZRA5M9XFAQTRLF6","1",3,2,3,"5","<p style=""font-size:100px""><b>V</b></p><p style=""position: absolute; top: 30px; right: 30px; text-align:right; font-size:50px"""">N = 3</p>","V",0,73,851,1,"agree",12,16,16,12,17,"25","female","good","Very Strong Agreement","Strong Agreement","Neither Agreement nor Disagreement","Moderate Agreement","Moderate Agreement","Strong Agreement","Moderate Agreement","Strong Agreement","Moderate Agreement","Very Strong Agreement","Slight Agreement","Strong Agreement","Strong Agreement","Slight Agreement","Moderate Agreement","Neither Agreement nor Disagreement","Neither Agreement nor Disagreement","Strong Disagreement"
"63","A1ZPX497XKDVON:3P529IW9KZRF8APZRA5M9XFAQTRLF6","1",3,3,3,"5","<p style=""font-size:100px""><b>T</b></p><p style=""position: absolute; top: 30px; right: 30px; text-align:right; font-size:50px"""">N = 3</p>","T",0,73,496,1,"agree",12,16,16,12,17,"25","female","good","Very Strong Agreement","Strong Agreement","Neither Agreement nor Disagreement","Moderate Agreement","Moderate Agreement","Strong Agreement","Moderate Agreement","Strong Agreement","Moderate Agreement","Very Strong Agreement","Slight Agreement","Strong Agreement","Strong Agreement","Slight Agreement","Moderate Agreement","Neither Agreement nor Disagreement","Neither Agreement nor Disagreement","Strong Disagreement"
"64","A1ZPX497XKDVON:3P529IW9KZRF8APZRA5M9XFAQTRLF6","1",3,4,3,"5","<p style=""font-size:100px""><b>P</b></p><p style=""position: absolute; top: 30px; right: 30px; text-align:right; font-size:50px"""">N = 3</p>","P",0,73,578,1,"agree",12,16,16,12,17,"25","female","good","Very Strong Agreement","Strong Agreement","Neither Agreement nor Disagreement","Moderate Agreement","Moderate Agreement","Strong Agreement","Moderate Agreement","Strong Agreement","Moderate Agreement","Very Strong Agreement","Slight Agreement","Strong Agreement","Strong Agreement","Slight Agreement","Moderate Agreement","Neither Agreement nor Disagreement","Neither Agreement nor Disagreement","Strong Disagreement"
"65","A1ZPX497XKDVON:3P529IW9KZRF8APZRA5M9XFAQTRLF6","1",3,5,3,"5","<p style=""font-size:100px""><b>D</b></p><p style=""position: absolute; top: 30px; right: 30px; text-align:right; font-size:50px"""">N = 3</p>","D",0,NA,NA,0,"agree",12,16,16,12,17,"25","female","good","Very Strong Agreement","Strong Agreement","Neither Agreement nor Disagreement","Moderate Agreement","Moderate Agreement","Strong Agreement","Moderate Agreement","Strong Agreement","Moderate Agreement","Very Strong Agreement","Slight Agreement","Strong Agreement","Strong Agreement","Slight Agreement","Moderate Agreement","Neither Agreement nor Disagreement","Neither Agreement nor Disagreement","Strong Disagreement"
"66","A1ZPX497XKDVON:3P529IW9KZRF8APZRA5M9XFAQTRLF6","1",3,6,3,"5","<p style=""font-size:100px""><b>b</b></p><p style=""position: absolute; top: 30px; right: 30px; text-align:right; font-size:50px"""">N = 3</p>","b",0,73,960,1,"agree",12,16,16,12,17,"25","female","good","Very Strong Agreement","Strong Agreement","Neither Agreement nor Disagreement","Moderate Agreement","Moderate Agreement","Strong Agreement","Moderate Agreement","Strong Agreement","Moderate Agreement","Very Strong Agreement","Slight Agreement","Strong Agreement","Strong Agreement","Slight Agreement","Moderate Agreement","Neither Agreement nor Disagreement","Neither Agreement nor Disagreement","Strong Disagreement"
"67","A1ZPX497XKDVON:3P529IW9KZRF8APZRA5M9XFAQTRLF6","1",3,7,3,"5","<p style=""font-size:100px""><b>d</b></p><p style=""position: absolute; top: 30px; right: 30px; text-align:right; font-size:50px"""">N = 3</p>","d",0,69,591,0,"agree",12,16,16,12,17,"25","female","good","Very Strong Agreement","Strong Agreement","Neither Agreement nor Disagreement","Moderate Agreement","Moderate Agreement","Strong Agreement","Moderate Agreement","Strong Agreement","Moderate Agreement","Very Strong Agreement","Slight Agreement","Strong Agreement","Strong Agreement","Slight Agreement","Moderate Agreement","Neither Agreement nor Disagreement","Neither Agreement nor Disagreement","Strong Disagreement"
"68","A1ZPX497XKDVON:3P529IW9KZRF8APZRA5M9XFAQTRLF6","1",3,8,3,"5","<p style=""font-size:100px""><b>D</b></p><p style=""position: absolute; top: 30px; right: 30px; text-align:right; font-size:50px"""">N = 3</p>","D",0,69,585,0,"agree",12,16,16,12,17,"25","female","good","Very Strong Agreement","Strong Agreement","Neither Agreement nor Disagreement","Moderate Agreement","Moderate Agreement","Strong Agreement","Moderate Agreement","Strong Agreement","Moderate Agreement","Very Strong Agreement","Slight Agreement","Strong Agreement","Strong Agreement","Slight Agreement","Moderate Agreement","Neither Agreement nor Disagreement","Neither Agreement nor Disagreement","Strong Disagreement"
"69","A1ZPX497XKDVON:3P529IW9KZRF8APZRA5M9XFAQTRLF6","1",3,9,3,"5","<p style=""font-size:100px""><b>b</b></p><p style=""position: absolute; top: 30px; right: 30px; text-align:right; font-size:50px"""">N = 3</p>","b",0,69,774,0,"agree",12,16,16,12,17,"25","female","good","Very Strong Agreement","Strong Agreement","Neither Agreement nor Disagreement","Moderate Agreement","Moderate Agreement","Strong Agreement","Moderate Agreement","Strong Agreement","Moderate Agreement","Very Strong Agreement","Slight Agreement","Strong Agreement","Strong Agreement","Slight Agreement","Moderate Agreement","Neither Agreement nor Disagreement","Neither Agreement nor Disagreement","Strong Disagreement"
"70","A1ZPX497XKDVON:3P529IW9KZRF8APZRA5M9XFAQTRLF6","1",3,10,3,"5","<p style=""font-size:100px""><b>d</b></p><p style=""position: absolute; top: 30px; right: 30px; text-align:right; font-size:50px"""">N = 3</p>","d",0,69,869,0,"agree",12,16,16,12,17,"25","female","good","Very Strong Agreement","Strong Agreement","Neither Agreement nor Disagreement","Moderate Agreement","Moderate Agreement","Strong Agreement","Moderate Agreement","Strong Agreement","Moderate Agreement","Very Strong Agreement","Slight Agreement","Strong Agreement","Strong Agreement","Slight Agreement","Moderate Agreement","Neither Agreement nor Disagreement","Neither Agreement nor Disagreement","Strong Disagreement"
"71","A1ZPX497XKDVON:3P529IW9KZRF8APZRA5M9XFAQTRLF6","1",3,11,3,"5","<p style=""font-size:100px""><b>D</b></p><p style=""position: absolute; top: 30px; right: 30px; text-align:right; font-size:50px"""">N = 3</p>","D",0,69,606,0,"agree",12,16,16,12,17,"25","female","good","Very Strong Agreement","Strong Agreement","Neither Agreement nor Disagreement","Moderate Agreement","Moderate Agreement","Strong Agreement","Moderate Agreement","Strong Agreement","Moderate Agreement","Very Strong Agreement","Slight Agreement","Strong Agreement","Strong Agreement","Slight Agreement","Moderate Agreement","Neither Agreement nor Disagreement","Neither Agreement nor Disagreement","Strong Disagreement"
"72","A1ZPX497XKDVON:3P529IW9KZRF8APZRA5M9XFAQTRLF6","1",3,12,3,"5","<p style=""font-size:100px""><b>T</b></p><p style=""position: absolute; top: 30px; right: 30px; text-align:right; font-size:50px"""">N = 3</p>","T",0,69,800,0,"agree",12,16,16,12,17,"25","female","good","Very Strong Agreement","Strong Agreement","Neither Agreement nor Disagreement","Moderate Agreement","Moderate Agreement","Strong Agreement","Moderate Agreement","Strong Agreement","Moderate Agreement","Very Strong Agreement","Slight Agreement","Strong Agreement","Strong Agreement","Slight Agreement","Moderate Agreement","Neither Agreement nor Disagreement","Neither Agreement nor Disagreement","Strong Disagreement"
"73","A1ZPX497XKDVON:3P529IW9KZRF8APZRA5M9XFAQTRLF6","1",4,1,1,"50","<p style=""font-size:100px""><b>P</b></p><p style=""position: absolute; top: 30px; right: 30px; text-align:right; font-size:50px"""">N = 1</p>","P",0,73,729,1,"agree",9,15,18,12,16,"25","female","good","Very Strong Agreement","Strong Agreement","Neither Agreement nor Disagreement","Moderate Agreement","Moderate Agreement","Strong Agreement","Moderate Agreement","Strong Agreement","Moderate Agreement","Very Strong Agreement","Slight Agreement","Strong Agreement","Strong Agreement","Slight Agreement","Moderate Agreement","Neither Agreement nor Disagreement","Neither Agreement nor Disagreement","Strong Disagreement"
"74","A1ZPX497XKDVON:3P529IW9KZRF8APZRA5M9XFAQTRLF6","1",4,2,1,"50","<p style=""font-size:100px""><b>t</b></p><p style=""position: absolute; top: 30px; right: 30px; text-align:right; font-size:50px"""">N = 1</p>","t",0,73,783,1,"agree",9,15,18,12,16,"25","female","good","Very Strong Agreement","Strong Agreement","Neither Agreement nor Disagreement","Moderate Agreement","Moderate Agreement","Strong Agreement","Moderate Agreement","Strong Agreement","Moderate Agreement","Very Strong Agreement","Slight Agreement","Strong Agreement","Strong Agreement","Slight Agreement","Moderate Agreement","Neither Agreement nor Disagreement","Neither Agreement nor Disagreement","Strong Disagreement"
"75","A1ZPX497XKDVON:3P529IW9KZRF8APZRA5M9XFAQTRLF6","1",4,3,1,"50","<p style=""font-size:100px""><b>t</b></p><p style=""position: absolute; top: 30px; right: 30px; text-align:right; font-size:50px"""">N = 1</p>","t",0,73,450,1,"agree",9,15,18,12,16,"25","female","good","Very Strong Agreement","Strong Agreement","Neither Agreement nor Disagreement","Moderate Agreement","Moderate Agreement","Strong Agreement","Moderate Agreement","Strong Agreement","Moderate Agreement","Very Strong Agreement","Slight Agreement","Strong Agreement","Strong Agreement","Slight Agreement","Moderate Agreement","Neither Agreement nor Disagreement","Neither Agreement nor Disagreement","Strong Disagreement"
"76","A1ZPX497XKDVON:3P529IW9KZRF8APZRA5M9XFAQTRLF6","1",4,4,1,"50","<p style=""font-size:100px""><b>t</b></p><p style=""position: absolute; top: 30px; right: 30px; text-align:right; font-size:50px"""">N = 1</p>","t",0,69,554,0,"agree",9,15,18,12,16,"25","female","good","Very Strong Agreement","Strong Agreement","Neither Agreement nor Disagreement","Moderate Agreement","Moderate Agreement","Strong Agreement","Moderate Agreement","Strong Agreement","Moderate Agreement","Very Strong Agreement","Slight Agreement","Strong Agreement","Strong Agreement","Slight Agreement","Moderate Agreement","Neither Agreement nor Disagreement","Neither Agreement nor Disagreement","Strong Disagreement"
"77","A1ZPX497XKDVON:3P529IW9KZRF8APZRA5M9XFAQTRLF6","1",4,5,1,"50","<p style=""font-size:100px""><b>D</b></p><p style=""position: absolute; top: 30px; right: 30px; text-align:right; font-size:50px"""">N = 1</p>","D",0,73,996,1,"agree",9,15,18,12,16,"25","female","good","Very Strong Agreement","Strong Agreement","Neither Agreement nor Disagreement","Moderate Agreement","Moderate Agreement","Strong Agreement","Moderate Agreement","Strong Agreement","Moderate Agreement","Very Strong Agreement","Slight Agreement","Strong Agreement","Strong Agreement","Slight Agreement","Moderate Agreement","Neither Agreement nor Disagreement","Neither Agreement nor Disagreement","Strong Disagreement"
"78","A1ZPX497XKDVON:3P529IW9KZRF8APZRA5M9XFAQTRLF6","1",4,6,1,"50","<p style=""font-size:100px""><b>p</b></p><p style=""position: absolute; top: 30px; right: 30px; text-align:right; font-size:50px"""">N = 1</p>","p",0,73,870,1,"agree",9,15,18,12,16,"25","female","good","Very Strong Agreement","Strong Agreement","Neither Agreement nor Disagreement","Moderate Agreement","Moderate Agreement","Strong Agreement","Moderate Agreement","Strong Agreement","Moderate Agreement","Very Strong Agreement","Slight Agreement","Strong Agreement","Strong Agreement","Slight Agreement","Moderate Agreement","Neither Agreement nor Disagreement","Neither Agreement nor Disagreement","Strong Disagreement"
"79","A1ZPX497XKDVON:3P529IW9KZRF8APZRA5M9XFAQTRLF6","1",4,7,1,"50","<p style=""font-size:100px""><b>b</b></p><p style=""position: absolute; top: 30px; right: 30px; text-align:right; font-size:50px"""">N = 1</p>","b",0,NA,NA,0,"agree",9,15,18,12,16,"25","female","good","Very Strong Agreement","Strong Agreement","Neither Agreement nor Disagreement","Moderate Agreement","Moderate Agreement","Strong Agreement","Moderate Agreement","Strong Agreement","Moderate Agreement","Very Strong Agreement","Slight Agreement","Strong Agreement","Strong Agreement","Slight Agreement","Moderate Agreement","Neither Agreement nor Disagreement","Neither Agreement nor Disagreement","Strong Disagreement"
"80","A1ZPX497XKDVON:3P529IW9KZRF8APZRA5M9XFAQTRLF6","1",4,8,1,"50","<p style=""font-size:100px""><b>b</b></p><p style=""position: absolute; top: 30px; right: 30px; text-align:right; font-size:50px"""">N = 1</p>","b",0,69,680,0,"agree",9,15,18,12,16,"25","female","good","Very Strong Agreement","Strong Agreement","Neither Agreement nor Disagreement","Moderate Agreement","Moderate Agreement","Strong Agreement","Moderate Agreement","Strong Agreement","Moderate Agreement","Very Strong Agreement","Slight Agreement","Strong Agreement","Strong Agreement","Slight Agreement","Moderate Agreement","Neither Agreement nor Disagreement","Neither Agreement nor Disagreement","Strong Disagreement"
"81","A1ZPX497XKDVON:3P529IW9KZRF8APZRA5M9XFAQTRLF6","1",4,9,1,"50","<p style=""font-size:100px""><b>b</b></p><p style=""position: absolute; top: 30px; right: 30px; text-align:right; font-size:50px"""">N = 1</p>","b",0,69,728,0,"agree",9,15,18,12,16,"25","female","good","Very Strong Agreement","Strong Agreement","Neither Agreement nor Disagreement","Moderate Agreement","Moderate Agreement","Strong Agreement","Moderate Agreement","Strong Agreement","Moderate Agreement","Very Strong Agreement","Slight Agreement","Strong Agreement","Strong Agreement","Slight Agreement","Moderate Agreement","Neither Agreement nor Disagreement","Neither Agreement nor Disagreement","Strong Disagreement"
"82","A1ZPX497XKDVON:3P529IW9KZRF8APZRA5M9XFAQTRLF6","1",4,10,1,"50","<p style=""font-size:100px""><b>t</b></p><p style=""position: absolute; top: 30px; right: 30px; text-align:right; font-size:50px"""">N = 1</p>","t",0,69,770,0,"agree",9,15,18,12,16,"25","female","good","Very Strong Agreement","Strong Agreement","Neither Agreement nor Disagreement","Moderate Agreement","Moderate Agreement","Strong Agreement","Moderate Agreement","Strong Agreement","Moderate Agreement","Very Strong Agreement","Slight Agreement","Strong Agreement","Strong Agreement","Slight Agreement","Moderate Agreement","Neither Agreement nor Disagreement","Neither Agreement nor Disagreement","Strong Disagreement"
"83","A1ZPX497XKDVON:3P529IW9KZRF8APZRA5M9XFAQTRLF6","1",4,11,1,"50","<p style=""font-size:100px""><b>g</b></p><p style=""position: absolute; top: 30px; right: 30px; text-align:right; font-size:50px"""">N = 1</p>","g",0,73,675,1,"agree",9,15,18,12,16,"25","female","good","Very Strong Agreement","Strong Agreement","Neither Agreement nor Disagreement","Moderate Agreement","Moderate Agreement","Strong Agreement","Moderate Agreement","Strong Agreement","Moderate Agreement","Very Strong Agreement","Slight Agreement","Strong Agreement","Strong Agreement","Slight Agreement","Moderate Agreement","Neither Agreement nor Disagreement","Neither Agreement nor Disagreement","Strong Disagreement"
"84","A1ZPX497XKDVON:3P529IW9KZRF8APZRA5M9XFAQTRLF6","1",4,12,1,"50","<p style=""font-size:100px""><b>P</b></p><p style=""position: absolute; top: 30px; right: 30px; text-align:right; font-size:50px"""">N = 1</p>","P",0,73,995,1,"agree",9,15,18,12,16,"25","female","good","Very Strong Agreement","Strong Agreement","Neither Agreement nor Disagreement","Moderate Agreement","Moderate Agreement","Strong Agreement","Moderate Agreement","Strong Agreement","Moderate Agreement","Very Strong Agreement","Slight Agreement","Strong Agreement","Strong Agreement","Slight Agreement","Moderate Agreement","Neither Agreement nor Disagreement","Neither Agreement nor Disagreement","Strong Disagreement"
"85","A1ZPX497XKDVON:3P529IW9KZRF8APZRA5M9XFAQTRLF6","1",5,1,3,"5","<p style=""font-size:100px""><b>b</b></p><p style=""position: absolute; top: 30px; right: 30px; text-align:right; font-size:50px"""">N = 3</p>","b",0,73,576,1,"agree",16,12,18,9,14,"25","female","good","Very Strong Agreement","Strong Agreement","Neither Agreement nor Disagreement","Moderate Agreement","Moderate Agreement","Strong Agreement","Moderate Agreement","Strong Agreement","Moderate Agreement","Very Strong Agreement","Slight Agreement","Strong Agreement","Strong Agreement","Slight Agreement","Moderate Agreement","Neither Agreement nor Disagreement","Neither Agreement nor Disagreement","Strong Disagreement"
"86","A1ZPX497XKDVON:3P529IW9KZRF8APZRA5M9XFAQTRLF6","1",5,2,3,"5","<p style=""font-size:100px""><b>T</b></p><p style=""position: absolute; top: 30px; right: 30px; text-align:right; font-size:50px"""">N = 3</p>","T",0,73,538,1,"agree",16,12,18,9,14,"25","female","good","Very Strong Agreement","Strong Agreement","Neither Agreement nor Disagreement","Moderate Agreement","Moderate Agreement","Strong Agreement","Moderate Agreement","Strong Agreement","Moderate Agreement","Very Strong Agreement","Slight Agreement","Strong Agreement","Strong Agreement","Slight Agreement","Moderate Agreement","Neither Agreement nor Disagreement","Neither Agreement nor Disagreement","Strong Disagreement"
"87","A1ZPX497XKDVON:3P529IW9KZRF8APZRA5M9XFAQTRLF6","1",5,3,3,"5","<p style=""font-size:100px""><b>p</b></p><p style=""position: absolute; top: 30px; right: 30px; text-align:right; font-size:50px"""">N = 3</p>","p",0,73,612,1,"agree",16,12,18,9,14,"25","female","good","Very Strong Agreement","Strong Agreement","Neither Agreement nor Disagreement","Moderate Agreement","Moderate Agreement","Strong Agreement","Moderate Agreement","Strong Agreement","Moderate Agreement","Very Strong Agreement","Slight Agreement","Strong Agreement","Strong Agreement","Slight Agreement","Moderate Agreement","Neither Agreement nor Disagreement","Neither Agreement nor Disagreement","Strong Disagreement"
"88","A1ZPX497XKDVON:3P529IW9KZRF8APZRA5M9XFAQTRLF6","1",5,4,3,"5","<p style=""font-size:100px""><b>b</b></p><p style=""position: absolute; top: 30px; right: 30px; text-align:right; font-size:50px"""">N = 3</p>","b",0,73,782,1,"agree",16,12,18,9,14,"25","female","good","Very Strong Agreement","Strong Agreement","Neither Agreement nor Disagreement","Moderate Agreement","Moderate Agreement","Strong Agreement","Moderate Agreement","Strong Agreement","Moderate Agreement","Very Strong Agreement","Slight Agreement","Strong Agreement","Strong Agreement","Slight Agreement","Moderate Agreement","Neither Agreement nor Disagreement","Neither Agreement nor Disagreement","Strong Disagreement"
"89","A1ZPX497XKDVON:3P529IW9KZRF8APZRA5M9XFAQTRLF6","1",5,5,3,"5","<p style=""font-size:100px""><b>T</b></p><p style=""position: absolute; top: 30px; right: 30px; text-align:right; font-size:50px"""">N = 3</p>","T",0,73,576,1,"agree",16,12,18,9,14,"25","female","good","Very Strong Agreement","Strong Agreement","Neither Agreement nor Disagreement","Moderate Agreement","Moderate Agreement","Strong Agreement","Moderate Agreement","Strong Agreement","Moderate Agreement","Very Strong Agreement","Slight Agreement","Strong Agreement","Strong Agreement","Slight Agreement","Moderate Agreement","Neither Agreement nor Disagreement","Neither Agreement nor Disagreement","Strong Disagreement"
"90","A1ZPX497XKDVON:3P529IW9KZRF8APZRA5M9XFAQTRLF6","1",5,6,3,"5","<p style=""font-size:100px""><b>T</b></p><p style=""position: absolute; top: 30px; right: 30px; text-align:right; font-size:50px"""">N = 3</p>","T",0,69,550,0,"agree",16,12,18,9,14,"25","female","good","Very Strong Agreement","Strong Agreement","Neither Agreement nor Disagreement","Moderate Agreement","Moderate Agreement","Strong Agreement","Moderate Agreement","Strong Agreement","Moderate Agreement","Very Strong Agreement","Slight Agreement","Strong Agreement","Strong Agreement","Slight Agreement","Moderate Agreement","Neither Agreement nor Disagreement","Neither Agreement nor Disagreement","Strong Disagreement"
"91","A1ZPX497XKDVON:3P529IW9KZRF8APZRA5M9XFAQTRLF6","1",5,7,3,"5","<p style=""font-size:100px""><b>t</b></p><p style=""position: absolute; top: 30px; right: 30px; text-align:right; font-size:50px"""">N = 3</p>","t",0,69,687,0,"agree",16,12,18,9,14,"25","female","good","Very Strong Agreement","Strong Agreement","Neither Agreement nor Disagreement","Moderate Agreement","Moderate Agreement","Strong Agreement","Moderate Agreement","Strong Agreement","Moderate Agreement","Very Strong Agreement","Slight Agreement","Strong Agreement","Strong Agreement","Slight Agreement","Moderate Agreement","Neither Agreement nor Disagreement","Neither Agreement nor Disagreement","Strong Disagreement"
"92","A1ZPX497XKDVON:3P529IW9KZRF8APZRA5M9XFAQTRLF6","1",5,8,3,"5","<p style=""font-size:100px""><b>T</b></p><p style=""position: absolute; top: 30px; right: 30px; text-align:right; font-size:50px"""">N = 3</p>","T",0,69,603,0,"agree",16,12,18,9,14,"25","female","good","Very Strong Agreement","Strong Agreement","Neither Agreement nor Disagreement","Moderate Agreement","Moderate Agreement","Strong Agreement","Moderate Agreement","Strong Agreement","Moderate Agreement","Very Strong Agreement","Slight Agreement","Strong Agreement","Strong Agreement","Slight Agreement","Moderate Agreement","Neither Agreement nor Disagreement","Neither Agreement nor Disagreement","Strong Disagreement"
"93","A1ZPX497XKDVON:3P529IW9KZRF8APZRA5M9XFAQTRLF6","1",5,9,3,"5","<p style=""font-size:100px""><b>p</b></p><p style=""position: absolute; top: 30px; right: 30px; text-align:right; font-size:50px"""">N = 3</p>","p",0,69,650,0,"agree",16,12,18,9,14,"25","female","good","Very Strong Agreement","Strong Agreement","Neither Agreement nor Disagreement","Moderate Agreement","Moderate Agreement","Strong Agreement","Moderate Agreement","Strong Agreement","Moderate Agreement","Very Strong Agreement","Slight Agreement","Strong Agreement","Strong Agreement","Slight Agreement","Moderate Agreement","Neither Agreement nor Disagreement","Neither Agreement nor Disagreement","Strong Disagreement"
"94","A1ZPX497XKDVON:3P529IW9KZRF8APZRA5M9XFAQTRLF6","1",5,10,3,"5","<p style=""font-size:100px""><b>t</b></p><p style=""position: absolute; top: 30px; right: 30px; text-align:right; font-size:50px"""">N = 3</p>","t",0,69,617,0,"agree",16,12,18,9,14,"25","female","good","Very Strong Agreement","Strong Agreement","Neither Agreement nor Disagreement","Moderate Agreement","Moderate Agreement","Strong Agreement","Moderate Agreement","Strong Agreement","Moderate Agreement","Very Strong Agreement","Slight Agreement","Strong Agreement","Strong Agreement","Slight Agreement","Moderate Agreement","Neither Agreement nor Disagreement","Neither Agreement nor Disagreement","Strong Disagreement"
"95","A1ZPX497XKDVON:3P529IW9KZRF8APZRA5M9XFAQTRLF6","1",5,11,3,"5","<p style=""font-size:100px""><b>g</b></p><p style=""position: absolute; top: 30px; right: 30px; text-align:right; font-size:50px"""">N = 3</p>","g",0,73,844,1,"agree",16,12,18,9,14,"25","female","good","Very Strong Agreement","Strong Agreement","Neither Agreement nor Disagreement","Moderate Agreement","Moderate Agreement","Strong Agreement","Moderate Agreement","Strong Agreement","Moderate Agreement","Very Strong Agreement","Slight Agreement","Strong Agreement","Strong Agreement","Slight Agreement","Moderate Agreement","Neither Agreement nor Disagreement","Neither Agreement nor Disagreement","Strong Disagreement"
"96","A1ZPX497XKDVON:3P529IW9KZRF8APZRA5M9XFAQTRLF6","1",5,12,3,"5","<p style=""font-size:100px""><b>d</b></p><p style=""position: absolute; top: 30px; right: 30px; text-align:right; font-size:50px"""">N = 3</p>","d",0,69,643,0,"agree",16,12,18,9,14,"25","female","good","Very Strong Agreement","Strong Agreement","Neither Agreement nor Disagreement","Moderate Agreement","Moderate Agreement","Strong Agreement","Moderate Agreement","Strong Agreement","Moderate Agreement","Very Strong Agreement","Slight Agreement","Strong Agreement","Strong Agreement","Slight Agreement","Moderate Agreement","Neither Agreement nor Disagreement","Neither Agreement nor Disagreement","Strong Disagreement"
"97","A1ZPX497XKDVON:3P529IW9KZRF8APZRA5M9XFAQTRLF6","1",6,1,2,"50","<p style=""font-size:100px""><b>D</b></p><p style=""position: absolute; top: 30px; right: 30px; text-align:right; font-size:50px"""">N = 2</p>","D",0,73,598,1,"agree",13,16,18,13,16,"25","female","good","Very Strong Agreement","Strong Agreement","Neither Agreement nor Disagreement","Moderate Agreement","Moderate Agreement","Strong Agreement","Moderate Agreement","Strong Agreement","Moderate Agreement","Very Strong Agreement","Slight Agreement","Strong Agreement","Strong Agreement","Slight Agreement","Moderate Agreement","Neither Agreement nor Disagreement","Neither Agreement nor Disagreement","Strong Disagreement"
"98","A1ZPX497XKDVON:3P529IW9KZRF8APZRA5M9XFAQTRLF6","1",6,2,2,"50","<p style=""font-size:100px""><b>B</b></p><p style=""position: absolute; top: 30px; right: 30px; text-align:right; font-size:50px"""">N = 2</p>","B",0,73,808,1,"agree",13,16,18,13,16,"25","female","good","Very Strong Agreement","Strong Agreement","Neither Agreement nor Disagreement","Moderate Agreement","Moderate Agreement","Strong Agreement","Moderate Agreement","Strong Agreement","Moderate Agreement","Very Strong Agreement","Slight Agreement","Strong Agreement","Strong Agreement","Slight Agreement","Moderate Agreement","Neither Agreement nor Disagreement","Neither Agreement nor Disagreement","Strong Disagreement"
"99","A1ZPX497XKDVON:3P529IW9KZRF8APZRA5M9XFAQTRLF6","1",6,3,2,"50","<p style=""font-size:100px""><b>v</b></p><p style=""position: absolute; top: 30px; right: 30px; text-align:right; font-size:50px"""">N = 2</p>","v",0,73,591,1,"agree",13,16,18,13,16,"25","female","good","Very Strong Agreement","Strong Agreement","Neither Agreement nor Disagreement","Moderate Agreement","Moderate Agreement","Strong Agreement","Moderate Agreement","Strong Agreement","Moderate Agreement","Very Strong Agreement","Slight Agreement","Strong Agreement","Strong Agreement","Slight Agreement","Moderate Agreement","Neither Agreement nor Disagreement","Neither Agreement nor Disagreement","Strong Disagreement"
"100","A1ZPX497XKDVON:3P529IW9KZRF8APZRA5M9XFAQTRLF6","1",6,4,2,"50","<p style=""font-size:100px""><b>p</b></p><p style=""position: absolute; top: 30px; right: 30px; text-align:right; font-size:50px"""">N = 2</p>","p",0,73,649,1,"agree",13,16,18,13,16,"25","female","good","Very Strong Agreement","Strong Agreement","Neither Agreement nor Disagreement","Moderate Agreement","Moderate Agreement","Strong Agreement","Moderate Agreement","Strong Agreement","Moderate Agreement","Very Strong Agreement","Slight Agreement","Strong Agreement","Strong Agreement","Slight Agreement","Moderate Agreement","Neither Agreement nor Disagreement","Neither Agreement nor Disagreement","Strong Disagreement"
"101","A1ZPX497XKDVON:3P529IW9KZRF8APZRA5M9XFAQTRLF6","1",6,5,2,"50","<p style=""font-size:100px""><b>v</b></p><p style=""position: absolute; top: 30px; right: 30px; text-align:right; font-size:50px"""">N = 2</p>","v",0,73,563,1,"agree",13,16,18,13,16,"25","female","good","Very Strong Agreement","Strong Agreement","Neither Agreement nor Disagreement","Moderate Agreement","Moderate Agreement","Strong Agreement","Moderate Agreement","Strong Agreement","Moderate Agreement","Very Strong Agreement","Slight Agreement","Strong Agreement","Strong Agreement","Slight Agreement","Moderate Agreement","Neither Agreement nor Disagreement","Neither Agreement nor Disagreement","Strong Disagreement"
"102","A1ZPX497XKDVON:3P529IW9KZRF8APZRA5M9XFAQTRLF6","1",6,6,2,"50","<p style=""font-size:100px""><b>p</b></p><p style=""position: absolute; top: 30px; right: 30px; text-align:right; font-size:50px"""">N = 2</p>","p",0,NA,NA,0,"agree",13,16,18,13,16,"25","female","good","Very Strong Agreement","Strong Agreement","Neither Agreement nor Disagreement","Moderate Agreement","Moderate Agreement","Strong Agreement","Moderate Agreement","Strong Agreement","Moderate Agreement","Very Strong Agreement","Slight Agreement","Strong Agreement","Strong Agreement","Slight Agreement","Moderate Agreement","Neither Agreement nor Disagreement","Neither Agreement nor Disagreement","Strong Disagreement"
"103","A1ZPX497XKDVON:3P529IW9KZRF8APZRA5M9XFAQTRLF6","1",6,7,2,"50","<p style=""font-size:100px""><b>T</b></p><p style=""position: absolute; top: 30px; right: 30px; text-align:right; font-size:50px"""">N = 2</p>","T",0,69,650,0,"agree",13,16,18,13,16,"25","female","good","Very Strong Agreement","Strong Agreement","Neither Agreement nor Disagreement","Moderate Agreement","Moderate Agreement","Strong Agreement","Moderate Agreement","Strong Agreement","Moderate Agreement","Very Strong Agreement","Slight Agreement","Strong Agreement","Strong Agreement","Slight Agreement","Moderate Agreement","Neither Agreement nor Disagreement","Neither Agreement nor Disagreement","Strong Disagreement"
"104","A1ZPX497XKDVON:3P529IW9KZRF8APZRA5M9XFAQTRLF6","1",6,8,2,"50","<p style=""font-size:100px""><b>d</b></p><p style=""position: absolute; top: 30px; right: 30px; text-align:right; font-size:50px"""">N = 2</p>","d",0,69,686,0,"agree",13,16,18,13,16,"25","female","good","Very Strong Agreement","Strong Agreement","Neither Agreement nor Disagreement","Moderate Agreement","Moderate Agreement","Strong Agreement","Moderate Agreement","Strong Agreement","Moderate Agreement","Very Strong Agreement","Slight Agreement","Strong Agreement","Strong Agreement","Slight Agreement","Moderate Agreement","Neither Agreement nor Disagreement","Neither Agreement nor Disagreement","Strong Disagreement"
"105","A1ZPX497XKDVON:3P529IW9KZRF8APZRA5M9XFAQTRLF6","1",6,9,2,"50","<p style=""font-size:100px""><b>T</b></p><p style=""position: absolute; top: 30px; right: 30px; text-align:right; font-size:50px"""">N = 2</p>","T",0,69,831,0,"agree",13,16,18,13,16,"25","female","good","Very Strong Agreement","Strong Agreement","Neither Agreement nor Disagreement","Moderate Agreement","Moderate Agreement","Strong Agreement","Moderate Agreement","Strong Agreement","Moderate Agreement","Very Strong Agreement","Slight Agreement","Strong Agreement","Strong Agreement","Slight Agreement","Moderate Agreement","Neither Agreement nor Disagreement","Neither Agreement nor Disagreement","Strong Disagreement"
"106","A1ZPX497XKDVON:3P529IW9KZRF8APZRA5M9XFAQTRLF6","1",6,10,2,"50","<p style=""font-size:100px""><b>v</b></p><p style=""position: absolute; top: 30px; right: 30px; text-align:right; font-size:50px"""">N = 2</p>","v",0,69,754,0,"agree",13,16,18,13,16,"25","female","good","Very Strong Agreement","Strong Agreement","Neither Agreement nor Disagreement","Moderate Agreement","Moderate Agreement","Strong Agreement","Moderate Agreement","Strong Agreement","Moderate Agreement","Very Strong Agreement","Slight Agreement","Strong Agreement","Strong Agreement","Slight Agreement","Moderate Agreement","Neither Agreement nor Disagreement","Neither Agreement nor Disagreement","Strong Disagreement"
"107","A1ZPX497XKDVON:3P529IW9KZRF8APZRA5M9XFAQTRLF6","1",6,11,2,"50","<p style=""font-size:100px""><b>T</b></p><p style=""position: absolute; top: 30px; right: 30px; text-align:right; font-size:50px"""">N = 2</p>","T",0,69,504,0,"agree",13,16,18,13,16,"25","female","good","Very Strong Agreement","Strong Agreement","Neither Agreement nor Disagreement","Moderate Agreement","Moderate Agreement","Strong Agreement","Moderate Agreement","Strong Agreement","Moderate Agreement","Very Strong Agreement","Slight Agreement","Strong Agreement","Strong Agreement","Slight Agreement","Moderate Agreement","Neither Agreement nor Disagreement","Neither Agreement nor Disagreement","Strong Disagreement"
"108","A1ZPX497XKDVON:3P529IW9KZRF8APZRA5M9XFAQTRLF6","1",6,12,2,"50","<p style=""font-size:100px""><b>P</b></p><p style=""position: absolute; top: 30px; right: 30px; text-align:right; font-size:50px"""">N = 2</p>","P",0,69,760,0,"agree",13,16,18,13,16,"25","female","good","Very Strong Agreement","Strong Agreement","Neither Agreement nor Disagreement","Moderate Agreement","Moderate Agreement","Strong Agreement","Moderate Agreement","Strong Agreement","Moderate Agreement","Very Strong Agreement","Slight Agreement","Strong Agreement","Strong Agreement","Slight Agreement","Moderate Agreement","Neither Agreement nor Disagreement","Neither Agreement nor Disagreement","Strong Disagreement"
"109","A1ZPX497XKDVON:3P529IW9KZRF8APZRA5M9XFAQTRLF6","2",7,1,1,"50","<p style=""font-size:100px""><b>g</b></p><p style=""position: absolute; top: 30px; right: 30px; text-align:right; font-size:50px"""">N = 1</p>","g",0,69,610,0,"agree",13,17,17,12,18,"25","female","good","Very Strong Agreement","Strong Agreement","Neither Agreement nor Disagreement","Moderate Agreement","Moderate Agreement","Strong Agreement","Moderate Agreement","Strong Agreement","Moderate Agreement","Very Strong Agreement","Slight Agreement","Strong Agreement","Strong Agreement","Slight Agreement","Moderate Agreement","Neither Agreement nor Disagreement","Neither Agreement nor Disagreement","Strong Disagreement"
"110","A1ZPX497XKDVON:3P529IW9KZRF8APZRA5M9XFAQTRLF6","2",7,2,1,"50","<p style=""font-size:100px""><b>g</b></p><p style=""position: absolute; top: 30px; right: 30px; text-align:right; font-size:50px"""">N = 1</p>","g",0,73,740,1,"agree",13,17,17,12,18,"25","female","good","Very Strong Agreement","Strong Agreement","Neither Agreement nor Disagreement","Moderate Agreement","Moderate Agreement","Strong Agreement","Moderate Agreement","Strong Agreement","Moderate Agreement","Very Strong Agreement","Slight Agreement","Strong Agreement","Strong Agreement","Slight Agreement","Moderate Agreement","Neither Agreement nor Disagreement","Neither Agreement nor Disagreement","Strong Disagreement"
"111","A1ZPX497XKDVON:3P529IW9KZRF8APZRA5M9XFAQTRLF6","2",7,3,1,"50","<p style=""font-size:100px""><b>T</b></p><p style=""position: absolute; top: 30px; right: 30px; text-align:right; font-size:50px"""">N = 1</p>","T",0,69,655,0,"agree",13,17,17,12,18,"25","female","good","Very Strong Agreement","Strong Agreement","Neither Agreement nor Disagreement","Moderate Agreement","Moderate Agreement","Strong Agreement","Moderate Agreement","Strong Agreement","Moderate Agreement","Very Strong Agreement","Slight Agreement","Strong Agreement","Strong Agreement","Slight Agreement","Moderate Agreement","Neither Agreement nor Disagreement","Neither Agreement nor Disagreement","Strong Disagreement"
"112","A1ZPX497XKDVON:3P529IW9KZRF8APZRA5M9XFAQTRLF6","2",7,4,1,"50","<p style=""font-size:100px""><b>b</b></p><p style=""position: absolute; top: 30px; right: 30px; text-align:right; font-size:50px"""">N = 1</p>","b",0,NA,NA,0,"agree",13,17,17,12,18,"25","female","good","Very Strong Agreement","Strong Agreement","Neither Agreement nor Disagreement","Moderate Agreement","Moderate Agreement","Strong Agreement","Moderate Agreement","Strong Agreement","Moderate Agreement","Very Strong Agreement","Slight Agreement","Strong Agreement","Strong Agreement","Slight Agreement","Moderate Agreement","Neither Agreement nor Disagreement","Neither Agreement nor Disagreement","Strong Disagreement"
"113","A1ZPX497XKDVON:3P529IW9KZRF8APZRA5M9XFAQTRLF6","2",7,5,1,"50","<p style=""font-size:100px""><b>G</b></p><p style=""position: absolute; top: 30px; right: 30px; text-align:right; font-size:50px"""">N = 1</p>","G",0,NA,NA,0,"agree",13,17,17,12,18,"25","female","good","Very Strong Agreement","Strong Agreement","Neither Agreement nor Disagreement","Moderate Agreement","Moderate Agreement","Strong Agreement","Moderate Agreement","Strong Agreement","Moderate Agreement","Very Strong Agreement","Slight Agreement","Strong Agreement","Strong Agreement","Slight Agreement","Moderate Agreement","Neither Agreement nor Disagreement","Neither Agreement nor Disagreement","Strong Disagreement"
"114","A1ZPX497XKDVON:3P529IW9KZRF8APZRA5M9XFAQTRLF6","2",7,6,1,"50","<p style=""font-size:100px""><b>G</b></p><p style=""position: absolute; top: 30px; right: 30px; text-align:right; font-size:50px"""">N = 1</p>","G",0,73,879,1,"agree",13,17,17,12,18,"25","female","good","Very Strong Agreement","Strong Agreement","Neither Agreement nor Disagreement","Moderate Agreement","Moderate Agreement","Strong Agreement","Moderate Agreement","Strong Agreement","Moderate Agreement","Very Strong Agreement","Slight Agreement","Strong Agreement","Strong Agreement","Slight Agreement","Moderate Agreement","Neither Agreement nor Disagreement","Neither Agreement nor Disagreement","Strong Disagreement"
"115","A1ZPX497XKDVON:3P529IW9KZRF8APZRA5M9XFAQTRLF6","2",7,7,1,"50","<p style=""font-size:100px""><b>B</b></p><p style=""position: absolute; top: 30px; right: 30px; text-align:right; font-size:50px"""">N = 1</p>","B",0,69,688,0,"agree",13,17,17,12,18,"25","female","good","Very Strong Agreement","Strong Agreement","Neither Agreement nor Disagreement","Moderate Agreement","Moderate Agreement","Strong Agreement","Moderate Agreement","Strong Agreement","Moderate Agreement","Very Strong Agreement","Slight Agreement","Strong Agreement","Strong Agreement","Slight Agreement","Moderate Agreement","Neither Agreement nor Disagreement","Neither Agreement nor Disagreement","Strong Disagreement"
"116","A1ZPX497XKDVON:3P529IW9KZRF8APZRA5M9XFAQTRLF6","2",7,8,1,"50","<p style=""font-size:100px""><b>B</b></p><p style=""position: absolute; top: 30px; right: 30px; text-align:right; font-size:50px"""">N = 1</p>","B",0,73,578,1,"agree",13,17,17,12,18,"25","female","good","Very Strong Agreement","Strong Agreement","Neither Agreement nor Disagreement","Moderate Agreement","Moderate Agreement","Strong Agreement","Moderate Agreement","Strong Agreement","Moderate Agreement","Very Strong Agreement","Slight Agreement","Strong Agreement","Strong Agreement","Slight Agreement","Moderate Agreement","Neither Agreement nor Disagreement","Neither Agreement nor Disagreement","Strong Disagreement"
"117","A1ZPX497XKDVON:3P529IW9KZRF8APZRA5M9XFAQTRLF6","2",7,9,1,"50","<p style=""font-size:100px""><b>B</b></p><p style=""position: absolute; top: 30px; right: 30px; text-align:right; font-size:50px"""">N = 1</p>","B",0,69,612,0,"agree",13,17,17,12,18,"25","female","good","Very Strong Agreement","Strong Agreement","Neither Agreement nor Disagreement","Moderate Agreement","Moderate Agreement","Strong Agreement","Moderate Agreement","Strong Agreement","Moderate Agreement","Very Strong Agreement","Slight Agreement","Strong Agreement","Strong Agreement","Slight Agreement","Moderate Agreement","Neither Agreement nor Disagreement","Neither Agreement nor Disagreement","Strong Disagreement"
"118","A1ZPX497XKDVON:3P529IW9KZRF8APZRA5M9XFAQTRLF6","2",7,10,1,"50","<p style=""font-size:100px""><b>g</b></p><p style=""position: absolute; top: 30px; right: 30px; text-align:right; font-size:50px"""">N = 1</p>","g",0,73,640,1,"agree",13,17,17,12,18,"25","female","good","Very Strong Agreement","Strong Agreement","Neither Agreement nor Disagreement","Moderate Agreement","Moderate Agreement","Strong Agreement","Moderate Agreement","Strong Agreement","Moderate Agreement","Very Strong Agreement","Slight Agreement","Strong Agreement","Strong Agreement","Slight Agreement","Moderate Agreement","Neither Agreement nor Disagreement","Neither Agreement nor Disagreement","Strong Disagreement"
"119","A1ZPX497XKDVON:3P529IW9KZRF8APZRA5M9XFAQTRLF6","2",7,11,1,"50","<p style=""font-size:100px""><b>B</b></p><p style=""position: absolute; top: 30px; right: 30px; text-align:right; font-size:50px"""">N = 1</p>","B",0,73,601,1,"agree",13,17,17,12,18,"25","female","good","Very Strong Agreement","Strong Agreement","Neither Agreement nor Disagreement","Moderate Agreement","Moderate Agreement","Strong Agreement","Moderate Agreement","Strong Agreement","Moderate Agreement","Very Strong Agreement","Slight Agreement","Strong Agreement","Strong Agreement","Slight Agreement","Moderate Agreement","Neither Agreement nor Disagreement","Neither Agreement nor Disagreement","Strong Disagreement"
"120","A1ZPX497XKDVON:3P529IW9KZRF8APZRA5M9XFAQTRLF6","2",7,12,1,"50","<p style=""font-size:100px""><b>V</b></p><p style=""position: absolute; top: 30px; right: 30px; text-align:right; font-size:50px"""">N = 1</p>","V",0,69,803,0,"agree",13,17,17,12,18,"25","female","good","Very Strong Agreement","Strong Agreement","Neither Agreement nor Disagreement","Moderate Agreement","Moderate Agreement","Strong Agreement","Moderate Agreement","Strong Agreement","Moderate Agreement","Very Strong Agreement","Slight Agreement","Strong Agreement","Strong Agreement","Slight Agreement","Moderate Agreement","Neither Agreement nor Disagreement","Neither Agreement nor Disagreement","Strong Disagreement"
"121","A1ZPX497XKDVON:3P529IW9KZRF8APZRA5M9XFAQTRLF6","2",8,1,1,"5","<p style=""font-size:100px""><b>b</b></p><p style=""position: absolute; top: 30px; right: 30px; text-align:right; font-size:50px"""">N = 1</p>","b",0,NA,NA,0,"agree",12,16,17,12,17,"25","female","good","Very Strong Agreement","Strong Agreement","Neither Agreement nor Disagreement","Moderate Agreement","Moderate Agreement","Strong Agreement","Moderate Agreement","Strong Agreement","Moderate Agreement","Very Strong Agreement","Slight Agreement","Strong Agreement","Strong Agreement","Slight Agreement","Moderate Agreement","Neither Agreement nor Disagreement","Neither Agreement nor Disagreement","Strong Disagreement"
"122","A1ZPX497XKDVON:3P529IW9KZRF8APZRA5M9XFAQTRLF6","2",8,2,1,"5","<p style=""font-size:100px""><b>G</b></p><p style=""position: absolute; top: 30px; right: 30px; text-align:right; font-size:50px"""">N = 1</p>","G",0,NA,NA,0,"agree",12,16,17,12,17,"25","female","good","Very Strong Agreement","Strong Agreement","Neither Agreement nor Disagreement","Moderate Agreement","Moderate Agreement","Strong Agreement","Moderate Agreement","Strong Agreement","Moderate Agreement","Very Strong Agreement","Slight Agreement","Strong Agreement","Strong Agreement","Slight Agreement","Moderate Agreement","Neither Agreement nor Disagreement","Neither Agreement nor Disagreement","Strong Disagreement"
"123","A1ZPX497XKDVON:3P529IW9KZRF8APZRA5M9XFAQTRLF6","2",8,3,1,"5","<p style=""font-size:100px""><b>v</b></p><p style=""position: absolute; top: 30px; right: 30px; text-align:right; font-size:50px"""">N = 1</p>","v",0,69,771,0,"agree",12,16,17,12,17,"25","female","good","Very Strong Agreement","Strong Agreement","Neither Agreement nor Disagreement","Moderate Agreement","Moderate Agreement","Strong Agreement","Moderate Agreement","Strong Agreement","Moderate Agreement","Very Strong Agreement","Slight Agreement","Strong Agreement","Strong Agreement","Slight Agreement","Moderate Agreement","Neither Agreement nor Disagreement","Neither Agreement nor Disagreement","Strong Disagreement"
"124","A1ZPX497XKDVON:3P529IW9KZRF8APZRA5M9XFAQTRLF6","2",8,4,1,"5","<p style=""font-size:100px""><b>v</b></p><p style=""position: absolute; top: 30px; right: 30px; text-align:right; font-size:50px"""">N = 1</p>","v",0,69,491,0,"agree",12,16,17,12,17,"25","female","good","Very Strong Agreement","Strong Agreement","Neither Agreement nor Disagreement","Moderate Agreement","Moderate Agreement","Strong Agreement","Moderate Agreement","Strong Agreement","Moderate Agreement","Very Strong Agreement","Slight Agreement","Strong Agreement","Strong Agreement","Slight Agreement","Moderate Agreement","Neither Agreement nor Disagreement","Neither Agreement nor Disagreement","Strong Disagreement"
"125","A1ZPX497XKDVON:3P529IW9KZRF8APZRA5M9XFAQTRLF6","2",8,5,1,"5","<p style=""font-size:100px""><b>v</b></p><p style=""position: absolute; top: 30px; right: 30px; text-align:right; font-size:50px"""">N = 1</p>","v",0,73,514,1,"agree",12,16,17,12,17,"25","female","good","Very Strong Agreement","Strong Agreement","Neither Agreement nor Disagreement","Moderate Agreement","Moderate Agreement","Strong Agreement","Moderate Agreement","Strong Agreement","Moderate Agreement","Very Strong Agreement","Slight Agreement","Strong Agreement","Strong Agreement","Slight Agreement","Moderate Agreement","Neither Agreement nor Disagreement","Neither Agreement nor Disagreement","Strong Disagreement"
"126","A1ZPX497XKDVON:3P529IW9KZRF8APZRA5M9XFAQTRLF6","2",8,6,1,"5","<p style=""font-size:100px""><b>G</b></p><p style=""position: absolute; top: 30px; right: 30px; text-align:right; font-size:50px"""">N = 1</p>","G",0,73,676,1,"agree",12,16,17,12,17,"25","female","good","Very Strong Agreement","Strong Agreement","Neither Agreement nor Disagreement","Moderate Agreement","Moderate Agreement","Strong Agreement","Moderate Agreement","Strong Agreement","Moderate Agreement","Very Strong Agreement","Slight Agreement","Strong Agreement","Strong Agreement","Slight Agreement","Moderate Agreement","Neither Agreement nor Disagreement","Neither Agreement nor Disagreement","Strong Disagreement"
"127","A1ZPX497XKDVON:3P529IW9KZRF8APZRA5M9XFAQTRLF6","2",8,7,1,"5","<p style=""font-size:100px""><b>G</b></p><p style=""position: absolute; top: 30px; right: 30px; text-align:right; font-size:50px"""">N = 1</p>","G",0,73,583,1,"agree",12,16,17,12,17,"25","female","good","Very Strong Agreement","Strong Agreement","Neither Agreement nor Disagreement","Moderate Agreement","Moderate Agreement","Strong Agreement","Moderate Agreement","Strong Agreement","Moderate Agreement","Very Strong Agreement","Slight Agreement","Strong Agreement","Strong Agreement","Slight Agreement","Moderate Agreement","Neither Agreement nor Disagreement","Neither Agreement nor Disagreement","Strong Disagreement"
"128","A1ZPX497XKDVON:3P529IW9KZRF8APZRA5M9XFAQTRLF6","2",8,8,1,"5","<p style=""font-size:100px""><b>b</b></p><p style=""position: absolute; top: 30px; right: 30px; text-align:right; font-size:50px"""">N = 1</p>","b",0,73,769,1,"agree",12,16,17,12,17,"25","female","good","Very Strong Agreement","Strong Agreement","Neither Agreement nor Disagreement","Moderate Agreement","Moderate Agreement","Strong Agreement","Moderate Agreement","Strong Agreement","Moderate Agreement","Very Strong Agreement","Slight Agreement","Strong Agreement","Strong Agreement","Slight Agreement","Moderate Agreement","Neither Agreement nor Disagreement","Neither Agreement nor Disagreement","Strong Disagreement"
"129","A1ZPX497XKDVON:3P529IW9KZRF8APZRA5M9XFAQTRLF6","2",8,9,1,"5","<p style=""font-size:100px""><b>b</b></p><p style=""position: absolute; top: 30px; right: 30px; text-align:right; font-size:50px"""">N = 1</p>","b",0,73,536,1,"agree",12,16,17,12,17,"25","female","good","Very Strong Agreement","Strong Agreement","Neither Agreement nor Disagreement","Moderate Agreement","Moderate Agreement","Strong Agreement","Moderate Agreement","Strong Agreement","Moderate Agreement","Very Strong Agreement","Slight Agreement","Strong Agreement","Strong Agreement","Slight Agreement","Moderate Agreement","Neither Agreement nor Disagreement","Neither Agreement nor Disagreement","Strong Disagreement"
"130","A1ZPX497XKDVON:3P529IW9KZRF8APZRA5M9XFAQTRLF6","2",8,10,1,"5","<p style=""font-size:100px""><b>T</b></p><p style=""position: absolute; top: 30px; right: 30px; text-align:right; font-size:50px"""">N = 1</p>","T",0,73,729,1,"agree",12,16,17,12,17,"25","female","good","Very Strong Agreement","Strong Agreement","Neither Agreement nor Disagreement","Moderate Agreement","Moderate Agreement","Strong Agreement","Moderate Agreement","Strong Agreement","Moderate Agreement","Very Strong Agreement","Slight Agreement","Strong Agreement","Strong Agreement","Slight Agreement","Moderate Agreement","Neither Agreement nor Disagreement","Neither Agreement nor Disagreement","Strong Disagreement"
"131","A1ZPX497XKDVON:3P529IW9KZRF8APZRA5M9XFAQTRLF6","2",8,11,1,"5","<p style=""font-size:100px""><b>p</b></p><p style=""position: absolute; top: 30px; right: 30px; text-align:right; font-size:50px"""">N = 1</p>","p",0,NA,NA,0,"agree",12,16,17,12,17,"25","female","good","Very Strong Agreement","Strong Agreement","Neither Agreement nor Disagreement","Moderate Agreement","Moderate Agreement","Strong Agreement","Moderate Agreement","Strong Agreement","Moderate Agreement","Very Strong Agreement","Slight Agreement","Strong Agreement","Strong Agreement","Slight Agreement","Moderate Agreement","Neither Agreement nor Disagreement","Neither Agreement nor Disagreement","Strong Disagreement"
"132","A1ZPX497XKDVON:3P529IW9KZRF8APZRA5M9XFAQTRLF6","2",8,12,1,"5","<p style=""font-size:100px""><b>t</b></p><p style=""position: absolute; top: 30px; right: 30px; text-align:right; font-size:50px"""">N = 1</p>","t",0,73,694,1,"agree",12,16,17,12,17,"25","female","good","Very Strong Agreement","Strong Agreement","Neither Agreement nor Disagreement","Moderate Agreement","Moderate Agreement","Strong Agreement","Moderate Agreement","Strong Agreement","Moderate Agreement","Very Strong Agreement","Slight Agreement","Strong Agreement","Strong Agreement","Slight Agreement","Moderate Agreement","Neither Agreement nor Disagreement","Neither Agreement nor Disagreement","Strong Disagreement"
"133","A1ZPX497XKDVON:3P529IW9KZRF8APZRA5M9XFAQTRLF6","2",9,1,1,"5","<p style=""font-size:100px""><b>P</b></p><p style=""position: absolute; top: 30px; right: 30px; text-align:right; font-size:50px"""">N = 1</p>","P",0,NA,NA,0,"agree",14,17,17,12,16,"25","female","good","Very Strong Agreement","Strong Agreement","Neither Agreement nor Disagreement","Moderate Agreement","Moderate Agreement","Strong Agreement","Moderate Agreement","Strong Agreement","Moderate Agreement","Very Strong Agreement","Slight Agreement","Strong Agreement","Strong Agreement","Slight Agreement","Moderate Agreement","Neither Agreement nor Disagreement","Neither Agreement nor Disagreement","Strong Disagreement"
"134","A1ZPX497XKDVON:3P529IW9KZRF8APZRA5M9XFAQTRLF6","2",9,2,1,"5","<p style=""font-size:100px""><b>P</b></p><p style=""position: absolute; top: 30px; right: 30px; text-align:right; font-size:50px"""">N = 1</p>","P",0,73,815,1,"agree",14,17,17,12,16,"25","female","good","Very Strong Agreement","Strong Agreement","Neither Agreement nor Disagreement","Moderate Agreement","Moderate Agreement","Strong Agreement","Moderate Agreement","Strong Agreement","Moderate Agreement","Very Strong Agreement","Slight Agreement","Strong Agreement","Strong Agreement","Slight Agreement","Moderate Agreement","Neither Agreement nor Disagreement","Neither Agreement nor Disagreement","Strong Disagreement"
"135","A1ZPX497XKDVON:3P529IW9KZRF8APZRA5M9XFAQTRLF6","2",9,3,1,"5","<p style=""font-size:100px""><b>g</b></p><p style=""position: absolute; top: 30px; right: 30px; text-align:right; font-size:50px"""">N = 1</p>","g",0,69,776,0,"agree",14,17,17,12,16,"25","female","good","Very Strong Agreement","Strong Agreement","Neither Agreement nor Disagreement","Moderate Agreement","Moderate Agreement","Strong Agreement","Moderate Agreement","Strong Agreement","Moderate Agreement","Very Strong Agreement","Slight Agreement","Strong Agreement","Strong Agreement","Slight Agreement","Moderate Agreement","Neither Agreement nor Disagreement","Neither Agreement nor Disagreement","Strong Disagreement"
"136","A1ZPX497XKDVON:3P529IW9KZRF8APZRA5M9XFAQTRLF6","2",9,4,1,"5","<p style=""font-size:100px""><b>t</b></p><p style=""position: absolute; top: 30px; right: 30px; text-align:right; font-size:50px"""">N = 1</p>","t",0,69,702,0,"agree",14,17,17,12,16,"25","female","good","Very Strong Agreement","Strong Agreement","Neither Agreement nor Disagreement","Moderate Agreement","Moderate Agreement","Strong Agreement","Moderate Agreement","Strong Agreement","Moderate Agreement","Very Strong Agreement","Slight Agreement","Strong Agreement","Strong Agreement","Slight Agreement","Moderate Agreement","Neither Agreement nor Disagreement","Neither Agreement nor Disagreement","Strong Disagreement"
"137","A1ZPX497XKDVON:3P529IW9KZRF8APZRA5M9XFAQTRLF6","2",9,5,1,"5","<p style=""font-size:100px""><b>B</b></p><p style=""position: absolute; top: 30px; right: 30px; text-align:right; font-size:50px"""">N = 1</p>","B",0,69,624,0,"agree",14,17,17,12,16,"25","female","good","Very Strong Agreement","Strong Agreement","Neither Agreement nor Disagreement","Moderate Agreement","Moderate Agreement","Strong Agreement","Moderate Agreement","Strong Agreement","Moderate Agreement","Very Strong Agreement","Slight Agreement","Strong Agreement","Strong Agreement","Slight Agreement","Moderate Agreement","Neither Agreement nor Disagreement","Neither Agreement nor Disagreement","Strong Disagreement"
"138","A1ZPX497XKDVON:3P529IW9KZRF8APZRA5M9XFAQTRLF6","2",9,6,1,"5","<p style=""font-size:100px""><b>B</b></p><p style=""position: absolute; top: 30px; right: 30px; text-align:right; font-size:50px"""">N = 1</p>","B",0,73,656,1,"agree",14,17,17,12,16,"25","female","good","Very Strong Agreement","Strong Agreement","Neither Agreement nor Disagreement","Moderate Agreement","Moderate Agreement","Strong Agreement","Moderate Agreement","Strong Agreement","Moderate Agreement","Very Strong Agreement","Slight Agreement","Strong Agreement","Strong Agreement","Slight Agreement","Moderate Agreement","Neither Agreement nor Disagreement","Neither Agreement nor Disagreement","Strong Disagreement"
"139","A1ZPX497XKDVON:3P529IW9KZRF8APZRA5M9XFAQTRLF6","2",9,7,1,"5","<p style=""font-size:100px""><b>G</b></p><p style=""position: absolute; top: 30px; right: 30px; text-align:right; font-size:50px"""">N = 1</p>","G",0,73,634,1,"agree",14,17,17,12,16,"25","female","good","Very Strong Agreement","Strong Agreement","Neither Agreement nor Disagreement","Moderate Agreement","Moderate Agreement","Strong Agreement","Moderate Agreement","Strong Agreement","Moderate Agreement","Very Strong Agreement","Slight Agreement","Strong Agreement","Strong Agreement","Slight Agreement","Moderate Agreement","Neither Agreement nor Disagreement","Neither Agreement nor Disagreement","Strong Disagreement"
"140","A1ZPX497XKDVON:3P529IW9KZRF8APZRA5M9XFAQTRLF6","2",9,8,1,"5","<p style=""font-size:100px""><b>G</b></p><p style=""position: absolute; top: 30px; right: 30px; text-align:right; font-size:50px"""">N = 1</p>","G",0,73,515,1,"agree",14,17,17,12,16,"25","female","good","Very Strong Agreement","Strong Agreement","Neither Agreement nor Disagreement","Moderate Agreement","Moderate Agreement","Strong Agreement","Moderate Agreement","Strong Agreement","Moderate Agreement","Very Strong Agreement","Slight Agreement","Strong Agreement","Strong Agreement","Slight Agreement","Moderate Agreement","Neither Agreement nor Disagreement","Neither Agreement nor Disagreement","Strong Disagreement"
"141","A1ZPX497XKDVON:3P529IW9KZRF8APZRA5M9XFAQTRLF6","2",9,9,1,"5","<p style=""font-size:100px""><b>V</b></p><p style=""position: absolute; top: 30px; right: 30px; text-align:right; font-size:50px"""">N = 1</p>","V",0,73,688,1,"agree",14,17,17,12,16,"25","female","good","Very Strong Agreement","Strong Agreement","Neither Agreement nor Disagreement","Moderate Agreement","Moderate Agreement","Strong Agreement","Moderate Agreement","Strong Agreement","Moderate Agreement","Very Strong Agreement","Slight Agreement","Strong Agreement","Strong Agreement","Slight Agreement","Moderate Agreement","Neither Agreement nor Disagreement","Neither Agreement nor Disagreement","Strong Disagreement"
"142","A1ZPX497XKDVON:3P529IW9KZRF8APZRA5M9XFAQTRLF6","2",9,10,1,"5","<p style=""font-size:100px""><b>D</b></p><p style=""position: absolute; top: 30px; right: 30px; text-align:right; font-size:50px"""">N = 1</p>","D",0,73,829,1,"agree",14,17,17,12,16,"25","female","good","Very Strong Agreement","Strong Agreement","Neither Agreement nor Disagreement","Moderate Agreement","Moderate Agreement","Strong Agreement","Moderate Agreement","Strong Agreement","Moderate Agreement","Very Strong Agreement","Slight Agreement","Strong Agreement","Strong Agreement","Slight Agreement","Moderate Agreement","Neither Agreement nor Disagreement","Neither Agreement nor Disagreement","Strong Disagreement"
"143","A1ZPX497XKDVON:3P529IW9KZRF8APZRA5M9XFAQTRLF6","2",9,11,1,"5","<p style=""font-size:100px""><b>G</b></p><p style=""position: absolute; top: 30px; right: 30px; text-align:right; font-size:50px"""">N = 1</p>","G",0,69,570,0,"agree",14,17,17,12,16,"25","female","good","Very Strong Agreement","Strong Agreement","Neither Agreement nor Disagreement","Moderate Agreement","Moderate Agreement","Strong Agreement","Moderate Agreement","Strong Agreement","Moderate Agreement","Very Strong Agreement","Slight Agreement","Strong Agreement","Strong Agreement","Slight Agreement","Moderate Agreement","Neither Agreement nor Disagreement","Neither Agreement nor Disagreement","Strong Disagreement"
