"","subject","run","block","trial","N","reward","stimulus","cue","isTarget","key_press","rt","acc","debrief","performance","frustration","demand","temporal","effort","age","gender","comments","nfc1","nfc2","nfc3","nfc4","nfc5","nfc6","nfc7","nfc8","nfc9","nfc10","nfc11","nfc12","nfc13","nfc14","nfc15","nfc16","nfc17","nfc18"
"1","A2967HKT6Y57AG:3U5NZHP4LS8PDRV3ESMTTZ07BMPHPQ","practice",1,1,1,"NA","<p style=""font-size:100px""><b>G</b></p><p style=""position: absolute; top: 30px; right: 30px; text-align:right; font-size:50px"""">N = 1</p>","G",0,69,28440,0,"agree",14,15,15,14,16,"55","FEMALE","NOTHING","Moderate Disagreement","Strong Agreement","Slight Disagreement","Moderate Agreement","Strong Agreement","Very Strong Agreement","Strong Agreement","Moderate Agreement","Strong Agreement","Moderate Agreement","Strong Agreement","Moderate Agreement","Strong Agreement","Moderate Agreement","Strong Agreement","Moderate Agreement","Strong Agreement","Slight Agreement"
"2","A2967HKT6Y57AG:3U5NZHP4LS8PDRV3ESMTTZ07BMPHPQ","practice",1,2,1,"NA","<p style=""font-size:100px""><b>V</b></p><p style=""position: absolute; top: 30px; right: 30px; text-align:right; font-size:50px"""">N = 1</p>","V",0,69,652,0,"agree",14,15,15,14,16,"55","FEMALE","NOTHING","Moderate Disagreement","Strong Agreement","Slight Disagreement","Moderate Agreement","Strong Agreement","Very Strong Agreement","Strong Agreement","Moderate Agreement","Strong Agreement","Moderate Agreement","Strong Agreement","Moderate Agreement","Strong Agreement","Moderate Agreement","Strong Agreement","Moderate Agreement","Strong Agreement","Slight Agreement"
"3","A2967HKT6Y57AG:3U5NZHP4LS8PDRV3ESMTTZ07BMPHPQ","practice",1,3,1,"NA","<p style=""font-size:100px""><b>V</b></p><p style=""position: absolute; top: 30px; right: 30px; text-align:right; font-size:50px"""">N = 1</p>","V",1,69,3536,1,"agree",14,15,15,14,16,"55","FEMALE","NOTHING","Moderate Disagreement","Strong Agreement","Slight Disagreement","Moderate Agreement","Strong Agreement","Very Strong Agreement","Strong Agreement","Moderate Agreement","Strong Agreement","Moderate Agreement","Strong Agreement","Moderate Agreement","Strong Agreement","Moderate Agreement","Strong Agreement","Moderate Agreement","Strong Agreement","Slight Agreement"
"4","A2967HKT6Y57AG:3U5NZHP4LS8PDRV3ESMTTZ07BMPHPQ","practice",1,4,1,"NA","<p style=""font-size:100px""><b>b</b></p><p style=""position: absolute; top: 30px; right: 30px; text-align:right; font-size:50px"""">N = 1</p>","b",0,69,1851,0,"agree",14,15,15,14,16,"55","FEMALE","NOTHING","Moderate Disagreement","Strong Agreement","Slight Disagreement","Moderate Agreement","Strong Agreement","Very Strong Agreement","Strong Agreement","Moderate Agreement","Strong Agreement","Moderate Agreement","Strong Agreement","Moderate Agreement","Strong Agreement","Moderate Agreement","Strong Agreement","Moderate Agreement","Strong Agreement","Slight Agreement"
"5","A2967HKT6Y57AG:3U5NZHP4LS8PDRV3ESMTTZ07BMPHPQ","practice",1,5,1,"NA","<p style=""font-size:100px""><b>t</b></p><p style=""position: absolute; top: 30px; right: 30px; text-align:right; font-size:50px"""">N = 1</p>","t",0,69,4841,0,"agree",14,15,15,14,16,"55","FEMALE","NOTHING","Moderate Disagreement","Strong Agreement","Slight Disagreement","Moderate Agreement","Strong Agreement","Very Strong Agreement","Strong Agreement","Moderate Agreement","Strong Agreement","Moderate Agreement","Strong Agreement","Moderate Agreement","Strong Agreement","Moderate Agreement","Strong Agreement","Moderate Agreement","Strong Agreement","Slight Agreement"
"6","A2967HKT6Y57AG:3U5NZHP4LS8PDRV3ESMTTZ07BMPHPQ","practice",1,6,1,"NA","<p style=""font-size:100px""><b>G</b></p><p style=""position: absolute; top: 30px; right: 30px; text-align:right; font-size:50px"""">N = 1</p>","G",0,73,12782,1,"agree",14,15,15,14,16,"55","FEMALE","NOTHING","Moderate Disagreement","Strong Agreement","Slight Disagreement","Moderate Agreement","Strong Agreement","Very Strong Agreement","Strong Agreement","Moderate Agreement","Strong Agreement","Moderate Agreement","Strong Agreement","Moderate Agreement","Strong Agreement","Moderate Agreement","Strong Agreement","Moderate Agreement","Strong Agreement","Slight Agreement"
"7","A2967HKT6Y57AG:3U5NZHP4LS8PDRV3ESMTTZ07BMPHPQ","practice",1,7,1,"NA","<p style=""font-size:100px""><b>G</b></p><p style=""position: absolute; top: 30px; right: 30px; text-align:right; font-size:50px"""">N = 1</p>","G",1,73,3509,0,"agree",14,15,15,14,16,"55","FEMALE","NOTHING","Moderate Disagreement","Strong Agreement","Slight Disagreement","Moderate Agreement","Strong Agreement","Very Strong Agreement","Strong Agreement","Moderate Agreement","Strong Agreement","Moderate Agreement","Strong Agreement","Moderate Agreement","Strong Agreement","Moderate Agreement","Strong Agreement","Moderate Agreement","Strong Agreement","Slight Agreement"
"8","A2967HKT6Y57AG:3U5NZHP4LS8PDRV3ESMTTZ07BMPHPQ","practice",1,8,1,"NA","<p style=""font-size:100px""><b>P</b></p><p style=""position: absolute; top: 30px; right: 30px; text-align:right; font-size:50px"""">N = 1</p>","P",0,69,537,0,"agree",14,15,15,14,16,"55","FEMALE","NOTHING","Moderate Disagreement","Strong Agreement","Slight Disagreement","Moderate Agreement","Strong Agreement","Very Strong Agreement","Strong Agreement","Moderate Agreement","Strong Agreement","Moderate Agreement","Strong Agreement","Moderate Agreement","Strong Agreement","Moderate Agreement","Strong Agreement","Moderate Agreement","Strong Agreement","Slight Agreement"
"9","A2967HKT6Y57AG:3U5NZHP4LS8PDRV3ESMTTZ07BMPHPQ","practice",1,9,1,"NA","<p style=""font-size:100px""><b>v</b></p><p style=""position: absolute; top: 30px; right: 30px; text-align:right; font-size:50px"""">N = 1</p>","v",0,73,498,1,"agree",14,15,15,14,16,"55","FEMALE","NOTHING","Moderate Disagreement","Strong Agreement","Slight Disagreement","Moderate Agreement","Strong Agreement","Very Strong Agreement","Strong Agreement","Moderate Agreement","Strong Agreement","Moderate Agreement","Strong Agreement","Moderate Agreement","Strong Agreement","Moderate Agreement","Strong Agreement","Moderate Agreement","Strong Agreement","Slight Agreement"
"10","A2967HKT6Y57AG:3U5NZHP4LS8PDRV3ESMTTZ07BMPHPQ","practice",1,10,1,"NA","<p style=""font-size:100px""><b>P</b></p><p style=""position: absolute; top: 30px; right: 30px; text-align:right; font-size:50px"""">N = 1</p>","P",0,73,2582,1,"agree",14,15,15,14,16,"55","FEMALE","NOTHING","Moderate Disagreement","Strong Agreement","Slight Disagreement","Moderate Agreement","Strong Agreement","Very Strong Agreement","Strong Agreement","Moderate Agreement","Strong Agreement","Moderate Agreement","Strong Agreement","Moderate Agreement","Strong Agreement","Moderate Agreement","Strong Agreement","Moderate Agreement","Strong Agreement","Slight Agreement"
"11","A2967HKT6Y57AG:3U5NZHP4LS8PDRV3ESMTTZ07BMPHPQ","practice",1,11,1,"NA","<p style=""font-size:100px""><b>P</b></p><p style=""position: absolute; top: 30px; right: 30px; text-align:right; font-size:50px"""">N = 1</p>","P",1,73,1480,0,"agree",14,15,15,14,16,"55","FEMALE","NOTHING","Moderate Disagreement","Strong Agreement","Slight Disagreement","Moderate Agreement","Strong Agreement","Very Strong Agreement","Strong Agreement","Moderate Agreement","Strong Agreement","Moderate Agreement","Strong Agreement","Moderate Agreement","Strong Agreement","Moderate Agreement","Strong Agreement","Moderate Agreement","Strong Agreement","Slight Agreement"
"12","A2967HKT6Y57AG:3U5NZHP4LS8PDRV3ESMTTZ07BMPHPQ","practice",1,12,1,"NA","<p style=""font-size:100px""><b>P</b></p><p style=""position: absolute; top: 30px; right: 30px; text-align:right; font-size:50px"""">N = 1</p>","P",1,69,760,1,"agree",14,15,15,14,16,"55","FEMALE","NOTHING","Moderate Disagreement","Strong Agreement","Slight Disagreement","Moderate Agreement","Strong Agreement","Very Strong Agreement","Strong Agreement","Moderate Agreement","Strong Agreement","Moderate Agreement","Strong Agreement","Moderate Agreement","Strong Agreement","Moderate Agreement","Strong Agreement","Moderate Agreement","Strong Agreement","Slight Agreement"
"13","A2967HKT6Y57AG:3U5NZHP4LS8PDRV3ESMTTZ07BMPHPQ","practice",2,1,2,"NA","<p style=""font-size:100px""><b>t</b></p><p style=""position: absolute; top: 30px; right: 30px; text-align:right; font-size:50px"""">N = 2</p>","t",0,73,980,1,"agree",14,15,15,14,16,"55","FEMALE","NOTHING","Moderate Disagreement","Strong Agreement","Slight Disagreement","Moderate Agreement","Strong Agreement","Very Strong Agreement","Strong Agreement","Moderate Agreement","Strong Agreement","Moderate Agreement","Strong Agreement","Moderate Agreement","Strong Agreement","Moderate Agreement","Strong Agreement","Moderate Agreement","Strong Agreement","Slight Agreement"
"14","A2967HKT6Y57AG:3U5NZHP4LS8PDRV3ESMTTZ07BMPHPQ","practice",2,2,2,"NA","<p style=""font-size:100px""><b>B</b></p><p style=""position: absolute; top: 30px; right: 30px; text-align:right; font-size:50px"""">N = 2</p>","B",0,69,1554,0,"agree",14,15,15,14,16,"55","FEMALE","NOTHING","Moderate Disagreement","Strong Agreement","Slight Disagreement","Moderate Agreement","Strong Agreement","Very Strong Agreement","Strong Agreement","Moderate Agreement","Strong Agreement","Moderate Agreement","Strong Agreement","Moderate Agreement","Strong Agreement","Moderate Agreement","Strong Agreement","Moderate Agreement","Strong Agreement","Slight Agreement"
"15","A2967HKT6Y57AG:3U5NZHP4LS8PDRV3ESMTTZ07BMPHPQ","practice",2,3,2,"NA","<p style=""font-size:100px""><b>B</b></p><p style=""position: absolute; top: 30px; right: 30px; text-align:right; font-size:50px"""">N = 2</p>","B",0,73,592,1,"agree",14,15,15,14,16,"55","FEMALE","NOTHING","Moderate Disagreement","Strong Agreement","Slight Disagreement","Moderate Agreement","Strong Agreement","Very Strong Agreement","Strong Agreement","Moderate Agreement","Strong Agreement","Moderate Agreement","Strong Agreement","Moderate Agreement","Strong Agreement","Moderate Agreement","Strong Agreement","Moderate Agreement","Strong Agreement","Slight Agreement"
"16","A2967HKT6Y57AG:3U5NZHP4LS8PDRV3ESMTTZ07BMPHPQ","practice",2,4,2,"NA","<p style=""font-size:100px""><b>d</b></p><p style=""position: absolute; top: 30px; right: 30px; text-align:right; font-size:50px"""">N = 2</p>","d",0,73,896,1,"agree",14,15,15,14,16,"55","FEMALE","NOTHING","Moderate Disagreement","Strong Agreement","Slight Disagreement","Moderate Agreement","Strong Agreement","Very Strong Agreement","Strong Agreement","Moderate Agreement","Strong Agreement","Moderate Agreement","Strong Agreement","Moderate Agreement","Strong Agreement","Moderate Agreement","Strong Agreement","Moderate Agreement","Strong Agreement","Slight Agreement"
"17","A2967HKT6Y57AG:3U5NZHP4LS8PDRV3ESMTTZ07BMPHPQ","practice",2,5,2,"NA","<p style=""font-size:100px""><b>B</b></p><p style=""position: absolute; top: 30px; right: 30px; text-align:right; font-size:50px"""">N = 2</p>","B",1,73,760,0,"agree",14,15,15,14,16,"55","FEMALE","NOTHING","Moderate Disagreement","Strong Agreement","Slight Disagreement","Moderate Agreement","Strong Agreement","Very Strong Agreement","Strong Agreement","Moderate Agreement","Strong Agreement","Moderate Agreement","Strong Agreement","Moderate Agreement","Strong Agreement","Moderate Agreement","Strong Agreement","Moderate Agreement","Strong Agreement","Slight Agreement"
"18","A2967HKT6Y57AG:3U5NZHP4LS8PDRV3ESMTTZ07BMPHPQ","practice",2,6,2,"NA","<p style=""font-size:100px""><b>d</b></p><p style=""position: absolute; top: 30px; right: 30px; text-align:right; font-size:50px"""">N = 2</p>","d",1,73,755,0,"agree",14,15,15,14,16,"55","FEMALE","NOTHING","Moderate Disagreement","Strong Agreement","Slight Disagreement","Moderate Agreement","Strong Agreement","Very Strong Agreement","Strong Agreement","Moderate Agreement","Strong Agreement","Moderate Agreement","Strong Agreement","Moderate Agreement","Strong Agreement","Moderate Agreement","Strong Agreement","Moderate Agreement","Strong Agreement","Slight Agreement"
"19","A2967HKT6Y57AG:3U5NZHP4LS8PDRV3ESMTTZ07BMPHPQ","practice",2,7,2,"NA","<p style=""font-size:100px""><b>p</b></p><p style=""position: absolute; top: 30px; right: 30px; text-align:right; font-size:50px"""">N = 2</p>","p",0,73,1360,1,"agree",14,15,15,14,16,"55","FEMALE","NOTHING","Moderate Disagreement","Strong Agreement","Slight Disagreement","Moderate Agreement","Strong Agreement","Very Strong Agreement","Strong Agreement","Moderate Agreement","Strong Agreement","Moderate Agreement","Strong Agreement","Moderate Agreement","Strong Agreement","Moderate Agreement","Strong Agreement","Moderate Agreement","Strong Agreement","Slight Agreement"
"20","A2967HKT6Y57AG:3U5NZHP4LS8PDRV3ESMTTZ07BMPHPQ","practice",2,8,2,"NA","<p style=""font-size:100px""><b>d</b></p><p style=""position: absolute; top: 30px; right: 30px; text-align:right; font-size:50px"""">N = 2</p>","d",1,69,993,1,"agree",14,15,15,14,16,"55","FEMALE","NOTHING","Moderate Disagreement","Strong Agreement","Slight Disagreement","Moderate Agreement","Strong Agreement","Very Strong Agreement","Strong Agreement","Moderate Agreement","Strong Agreement","Moderate Agreement","Strong Agreement","Moderate Agreement","Strong Agreement","Moderate Agreement","Strong Agreement","Moderate Agreement","Strong Agreement","Slight Agreement"
"21","A2967HKT6Y57AG:3U5NZHP4LS8PDRV3ESMTTZ07BMPHPQ","practice",2,9,2,"NA","<p style=""font-size:100px""><b>B</b></p><p style=""position: absolute; top: 30px; right: 30px; text-align:right; font-size:50px"""">N = 2</p>","B",0,69,889,0,"agree",14,15,15,14,16,"55","FEMALE","NOTHING","Moderate Disagreement","Strong Agreement","Slight Disagreement","Moderate Agreement","Strong Agreement","Very Strong Agreement","Strong Agreement","Moderate Agreement","Strong Agreement","Moderate Agreement","Strong Agreement","Moderate Agreement","Strong Agreement","Moderate Agreement","Strong Agreement","Moderate Agreement","Strong Agreement","Slight Agreement"
"22","A2967HKT6Y57AG:3U5NZHP4LS8PDRV3ESMTTZ07BMPHPQ","practice",2,10,2,"NA","<p style=""font-size:100px""><b>V</b></p><p style=""position: absolute; top: 30px; right: 30px; text-align:right; font-size:50px"""">N = 2</p>","V",0,73,577,1,"agree",14,15,15,14,16,"55","FEMALE","NOTHING","Moderate Disagreement","Strong Agreement","Slight Disagreement","Moderate Agreement","Strong Agreement","Very Strong Agreement","Strong Agreement","Moderate Agreement","Strong Agreement","Moderate Agreement","Strong Agreement","Moderate Agreement","Strong Agreement","Moderate Agreement","Strong Agreement","Moderate Agreement","Strong Agreement","Slight Agreement"
"23","A2967HKT6Y57AG:3U5NZHP4LS8PDRV3ESMTTZ07BMPHPQ","practice",2,11,2,"NA","<p style=""font-size:100px""><b>B</b></p><p style=""position: absolute; top: 30px; right: 30px; text-align:right; font-size:50px"""">N = 2</p>","B",1,73,1136,0,"agree",14,15,15,14,16,"55","FEMALE","NOTHING","Moderate Disagreement","Strong Agreement","Slight Disagreement","Moderate Agreement","Strong Agreement","Very Strong Agreement","Strong Agreement","Moderate Agreement","Strong Agreement","Moderate Agreement","Strong Agreement","Moderate Agreement","Strong Agreement","Moderate Agreement","Strong Agreement","Moderate Agreement","Strong Agreement","Slight Agreement"
"24","A2967HKT6Y57AG:3U5NZHP4LS8PDRV3ESMTTZ07BMPHPQ","practice",2,12,2,"NA","<p style=""font-size:100px""><b>t</b></p><p style=""position: absolute; top: 30px; right: 30px; text-align:right; font-size:50px"""">N = 2</p>","t",0,69,288,0,"agree",14,15,15,14,16,"55","FEMALE","NOTHING","Moderate Disagreement","Strong Agreement","Slight Disagreement","Moderate Agreement","Strong Agreement","Very Strong Agreement","Strong Agreement","Moderate Agreement","Strong Agreement","Moderate Agreement","Strong Agreement","Moderate Agreement","Strong Agreement","Moderate Agreement","Strong Agreement","Moderate Agreement","Strong Agreement","Slight Agreement"
"25","A2967HKT6Y57AG:3U5NZHP4LS8PDRV3ESMTTZ07BMPHPQ","practice",3,1,3,"NA","<p style=""font-size:100px""><b>P</b></p><p style=""position: absolute; top: 30px; right: 30px; text-align:right; font-size:50px"""">N = 3</p>","P",0,69,40678,0,"agree",14,15,15,14,16,"55","FEMALE","NOTHING","Moderate Disagreement","Strong Agreement","Slight Disagreement","Moderate Agreement","Strong Agreement","Very Strong Agreement","Strong Agreement","Moderate Agreement","Strong Agreement","Moderate Agreement","Strong Agreement","Moderate Agreement","Strong Agreement","Moderate Agreement","Strong Agreement","Moderate Agreement","Strong Agreement","Slight Agreement"
"26","A2967HKT6Y57AG:3U5NZHP4LS8PDRV3ESMTTZ07BMPHPQ","practice",3,2,3,"NA","<p style=""font-size:100px""><b>v</b></p><p style=""position: absolute; top: 30px; right: 30px; text-align:right; font-size:50px"""">N = 3</p>","v",0,73,487,1,"agree",14,15,15,14,16,"55","FEMALE","NOTHING","Moderate Disagreement","Strong Agreement","Slight Disagreement","Moderate Agreement","Strong Agreement","Very Strong Agreement","Strong Agreement","Moderate Agreement","Strong Agreement","Moderate Agreement","Strong Agreement","Moderate Agreement","Strong Agreement","Moderate Agreement","Strong Agreement","Moderate Agreement","Strong Agreement","Slight Agreement"
"27","A2967HKT6Y57AG:3U5NZHP4LS8PDRV3ESMTTZ07BMPHPQ","practice",3,3,3,"NA","<p style=""font-size:100px""><b>D</b></p><p style=""position: absolute; top: 30px; right: 30px; text-align:right; font-size:50px"""">N = 3</p>","D",0,73,115194,1,"agree",14,15,15,14,16,"55","FEMALE","NOTHING","Moderate Disagreement","Strong Agreement","Slight Disagreement","Moderate Agreement","Strong Agreement","Very Strong Agreement","Strong Agreement","Moderate Agreement","Strong Agreement","Moderate Agreement","Strong Agreement","Moderate Agreement","Strong Agreement","Moderate Agreement","Strong Agreement","Moderate Agreement","Strong Agreement","Slight Agreement"
"28","A2967HKT6Y57AG:3U5NZHP4LS8PDRV3ESMTTZ07BMPHPQ","practice",3,4,3,"NA","<p style=""font-size:100px""><b>P</b></p><p style=""position: absolute; top: 30px; right: 30px; text-align:right; font-size:50px"""">N = 3</p>","P",1,73,504,0,"agree",14,15,15,14,16,"55","FEMALE","NOTHING","Moderate Disagreement","Strong Agreement","Slight Disagreement","Moderate Agreement","Strong Agreement","Very Strong Agreement","Strong Agreement","Moderate Agreement","Strong Agreement","Moderate Agreement","Strong Agreement","Moderate Agreement","Strong Agreement","Moderate Agreement","Strong Agreement","Moderate Agreement","Strong Agreement","Slight Agreement"
"29","A2967HKT6Y57AG:3U5NZHP4LS8PDRV3ESMTTZ07BMPHPQ","practice",3,5,3,"NA","<p style=""font-size:100px""><b>v</b></p><p style=""position: absolute; top: 30px; right: 30px; text-align:right; font-size:50px"""">N = 3</p>","v",1,69,464,1,"agree",14,15,15,14,16,"55","FEMALE","NOTHING","Moderate Disagreement","Strong Agreement","Slight Disagreement","Moderate Agreement","Strong Agreement","Very Strong Agreement","Strong Agreement","Moderate Agreement","Strong Agreement","Moderate Agreement","Strong Agreement","Moderate Agreement","Strong Agreement","Moderate Agreement","Strong Agreement","Moderate Agreement","Strong Agreement","Slight Agreement"
"30","A2967HKT6Y57AG:3U5NZHP4LS8PDRV3ESMTTZ07BMPHPQ","practice",3,6,3,"NA","<p style=""font-size:100px""><b>T</b></p><p style=""position: absolute; top: 30px; right: 30px; text-align:right; font-size:50px"""">N = 3</p>","T",0,73,336,1,"agree",14,15,15,14,16,"55","FEMALE","NOTHING","Moderate Disagreement","Strong Agreement","Slight Disagreement","Moderate Agreement","Strong Agreement","Very Strong Agreement","Strong Agreement","Moderate Agreement","Strong Agreement","Moderate Agreement","Strong Agreement","Moderate Agreement","Strong Agreement","Moderate Agreement","Strong Agreement","Moderate Agreement","Strong Agreement","Slight Agreement"
"31","A2967HKT6Y57AG:3U5NZHP4LS8PDRV3ESMTTZ07BMPHPQ","practice",3,7,3,"NA","<p style=""font-size:100px""><b>b</b></p><p style=""position: absolute; top: 30px; right: 30px; text-align:right; font-size:50px"""">N = 3</p>","b",0,69,1105,0,"agree",14,15,15,14,16,"55","FEMALE","NOTHING","Moderate Disagreement","Strong Agreement","Slight Disagreement","Moderate Agreement","Strong Agreement","Very Strong Agreement","Strong Agreement","Moderate Agreement","Strong Agreement","Moderate Agreement","Strong Agreement","Moderate Agreement","Strong Agreement","Moderate Agreement","Strong Agreement","Moderate Agreement","Strong Agreement","Slight Agreement"
"32","A2967HKT6Y57AG:3U5NZHP4LS8PDRV3ESMTTZ07BMPHPQ","practice",3,8,3,"NA","<p style=""font-size:100px""><b>T</b></p><p style=""position: absolute; top: 30px; right: 30px; text-align:right; font-size:50px"""">N = 3</p>","T",0,73,658,1,"agree",14,15,15,14,16,"55","FEMALE","NOTHING","Moderate Disagreement","Strong Agreement","Slight Disagreement","Moderate Agreement","Strong Agreement","Very Strong Agreement","Strong Agreement","Moderate Agreement","Strong Agreement","Moderate Agreement","Strong Agreement","Moderate Agreement","Strong Agreement","Moderate Agreement","Strong Agreement","Moderate Agreement","Strong Agreement","Slight Agreement"
"33","A2967HKT6Y57AG:3U5NZHP4LS8PDRV3ESMTTZ07BMPHPQ","practice",3,9,3,"NA","<p style=""font-size:100px""><b>V</b></p><p style=""position: absolute; top: 30px; right: 30px; text-align:right; font-size:50px"""">N = 3</p>","V",0,73,505,1,"agree",14,15,15,14,16,"55","FEMALE","NOTHING","Moderate Disagreement","Strong Agreement","Slight Disagreement","Moderate Agreement","Strong Agreement","Very Strong Agreement","Strong Agreement","Moderate Agreement","Strong Agreement","Moderate Agreement","Strong Agreement","Moderate Agreement","Strong Agreement","Moderate Agreement","Strong Agreement","Moderate Agreement","Strong Agreement","Slight Agreement"
"34","A2967HKT6Y57AG:3U5NZHP4LS8PDRV3ESMTTZ07BMPHPQ","practice",3,10,3,"NA","<p style=""font-size:100px""><b>G</b></p><p style=""position: absolute; top: 30px; right: 30px; text-align:right; font-size:50px"""">N = 3</p>","G",0,73,375,1,"agree",14,15,15,14,16,"55","FEMALE","NOTHING","Moderate Disagreement","Strong Agreement","Slight Disagreement","Moderate Agreement","Strong Agreement","Very Strong Agreement","Strong Agreement","Moderate Agreement","Strong Agreement","Moderate Agreement","Strong Agreement","Moderate Agreement","Strong Agreement","Moderate Agreement","Strong Agreement","Moderate Agreement","Strong Agreement","Slight Agreement"
"35","A2967HKT6Y57AG:3U5NZHP4LS8PDRV3ESMTTZ07BMPHPQ","practice",3,11,3,"NA","<p style=""font-size:100px""><b>T</b></p><p style=""position: absolute; top: 30px; right: 30px; text-align:right; font-size:50px"""">N = 3</p>","T",1,73,1057,0,"agree",14,15,15,14,16,"55","FEMALE","NOTHING","Moderate Disagreement","Strong Agreement","Slight Disagreement","Moderate Agreement","Strong Agreement","Very Strong Agreement","Strong Agreement","Moderate Agreement","Strong Agreement","Moderate Agreement","Strong Agreement","Moderate Agreement","Strong Agreement","Moderate Agreement","Strong Agreement","Moderate Agreement","Strong Agreement","Slight Agreement"
"36","A2967HKT6Y57AG:3U5NZHP4LS8PDRV3ESMTTZ07BMPHPQ","practice",3,12,3,"NA","<p style=""font-size:100px""><b>V</b></p><p style=""position: absolute; top: 30px; right: 30px; text-align:right; font-size:50px"""">N = 3</p>","V",1,73,814,0,"agree",14,15,15,14,16,"55","FEMALE","NOTHING","Moderate Disagreement","Strong Agreement","Slight Disagreement","Moderate Agreement","Strong Agreement","Very Strong Agreement","Strong Agreement","Moderate Agreement","Strong Agreement","Moderate Agreement","Strong Agreement","Moderate Agreement","Strong Agreement","Moderate Agreement","Strong Agreement","Moderate Agreement","Strong Agreement","Slight Agreement"
"37","A2967HKT6Y57AG:3U5NZHP4LS8PDRV3ESMTTZ07BMPHPQ","1",1,1,1,"5","<p style=""font-size:100px""><b>b</b></p><p style=""position: absolute; top: 30px; right: 30px; text-align:right; font-size:50px"""">N = 1</p>","b",0,NA,NA,0,"agree",14,15,15,14,16,"55","FEMALE","NOTHING","Moderate Disagreement","Strong Agreement","Slight Disagreement","Moderate Agreement","Strong Agreement","Very Strong Agreement","Strong Agreement","Moderate Agreement","Strong Agreement","Moderate Agreement","Strong Agreement","Moderate Agreement","Strong Agreement","Moderate Agreement","Strong Agreement","Moderate Agreement","Strong Agreement","Slight Agreement"
"38","A2967HKT6Y57AG:3U5NZHP4LS8PDRV3ESMTTZ07BMPHPQ","1",1,2,1,"5","<p style=""font-size:100px""><b>b</b></p><p style=""position: absolute; top: 30px; right: 30px; text-align:right; font-size:50px"""">N = 1</p>","b",0,69,808,0,"agree",14,15,15,14,16,"55","FEMALE","NOTHING","Moderate Disagreement","Strong Agreement","Slight Disagreement","Moderate Agreement","Strong Agreement","Very Strong Agreement","Strong Agreement","Moderate Agreement","Strong Agreement","Moderate Agreement","Strong Agreement","Moderate Agreement","Strong Agreement","Moderate Agreement","Strong Agreement","Moderate Agreement","Strong Agreement","Slight Agreement"
"39","A2967HKT6Y57AG:3U5NZHP4LS8PDRV3ESMTTZ07BMPHPQ","1",1,3,1,"5","<p style=""font-size:100px""><b>d</b></p><p style=""position: absolute; top: 30px; right: 30px; text-align:right; font-size:50px"""">N = 1</p>","d",0,73,4,1,"agree",14,15,15,14,16,"55","FEMALE","NOTHING","Moderate Disagreement","Strong Agreement","Slight Disagreement","Moderate Agreement","Strong Agreement","Very Strong Agreement","Strong Agreement","Moderate Agreement","Strong Agreement","Moderate Agreement","Strong Agreement","Moderate Agreement","Strong Agreement","Moderate Agreement","Strong Agreement","Moderate Agreement","Strong Agreement","Slight Agreement"
"40","A2967HKT6Y57AG:3U5NZHP4LS8PDRV3ESMTTZ07BMPHPQ","1",1,4,1,"5","<p style=""font-size:100px""><b>V</b></p><p style=""position: absolute; top: 30px; right: 30px; text-align:right; font-size:50px"""">N = 1</p>","V",0,73,383,1,"agree",14,15,15,14,16,"55","FEMALE","NOTHING","Moderate Disagreement","Strong Agreement","Slight Disagreement","Moderate Agreement","Strong Agreement","Very Strong Agreement","Strong Agreement","Moderate Agreement","Strong Agreement","Moderate Agreement","Strong Agreement","Moderate Agreement","Strong Agreement","Moderate Agreement","Strong Agreement","Moderate Agreement","Strong Agreement","Slight Agreement"
"41","A2967HKT6Y57AG:3U5NZHP4LS8PDRV3ESMTTZ07BMPHPQ","1",1,5,1,"5","<p style=""font-size:100px""><b>V</b></p><p style=""position: absolute; top: 30px; right: 30px; text-align:right; font-size:50px"""">N = 1</p>","V",0,NA,NA,0,"agree",14,15,15,14,16,"55","FEMALE","NOTHING","Moderate Disagreement","Strong Agreement","Slight Disagreement","Moderate Agreement","Strong Agreement","Very Strong Agreement","Strong Agreement","Moderate Agreement","Strong Agreement","Moderate Agreement","Strong Agreement","Moderate Agreement","Strong Agreement","Moderate Agreement","Strong Agreement","Moderate Agreement","Strong Agreement","Slight Agreement"
"42","A2967HKT6Y57AG:3U5NZHP4LS8PDRV3ESMTTZ07BMPHPQ","1",1,6,1,"5","<p style=""font-size:100px""><b>T</b></p><p style=""position: absolute; top: 30px; right: 30px; text-align:right; font-size:50px"""">N = 1</p>","T",0,NA,NA,0,"agree",14,15,15,14,16,"55","FEMALE","NOTHING","Moderate Disagreement","Strong Agreement","Slight Disagreement","Moderate Agreement","Strong Agreement","Very Strong Agreement","Strong Agreement","Moderate Agreement","Strong Agreement","Moderate Agreement","Strong Agreement","Moderate Agreement","Strong Agreement","Moderate Agreement","Strong Agreement","Moderate Agreement","Strong Agreement","Slight Agreement"
"43","A2967HKT6Y57AG:3U5NZHP4LS8PDRV3ESMTTZ07BMPHPQ","1",1,7,1,"5","<p style=""font-size:100px""><b>G</b></p><p style=""position: absolute; top: 30px; right: 30px; text-align:right; font-size:50px"""">N = 1</p>","G",0,73,504,1,"agree",14,15,15,14,16,"55","FEMALE","NOTHING","Moderate Disagreement","Strong Agreement","Slight Disagreement","Moderate Agreement","Strong Agreement","Very Strong Agreement","Strong Agreement","Moderate Agreement","Strong Agreement","Moderate Agreement","Strong Agreement","Moderate Agreement","Strong Agreement","Moderate Agreement","Strong Agreement","Moderate Agreement","Strong Agreement","Slight Agreement"
"44","A2967HKT6Y57AG:3U5NZHP4LS8PDRV3ESMTTZ07BMPHPQ","1",1,8,1,"5","<p style=""font-size:100px""><b>T</b></p><p style=""position: absolute; top: 30px; right: 30px; text-align:right; font-size:50px"""">N = 1</p>","T",0,73,367,1,"agree",14,15,15,14,16,"55","FEMALE","NOTHING","Moderate Disagreement","Strong Agreement","Slight Disagreement","Moderate Agreement","Strong Agreement","Very Strong Agreement","Strong Agreement","Moderate Agreement","Strong Agreement","Moderate Agreement","Strong Agreement","Moderate Agreement","Strong Agreement","Moderate Agreement","Strong Agreement","Moderate Agreement","Strong Agreement","Slight Agreement"
"45","A2967HKT6Y57AG:3U5NZHP4LS8PDRV3ESMTTZ07BMPHPQ","1",1,9,1,"5","<p style=""font-size:100px""><b>V</b></p><p style=""position: absolute; top: 30px; right: 30px; text-align:right; font-size:50px"""">N = 1</p>","V",0,73,521,1,"agree",14,15,15,14,16,"55","FEMALE","NOTHING","Moderate Disagreement","Strong Agreement","Slight Disagreement","Moderate Agreement","Strong Agreement","Very Strong Agreement","Strong Agreement","Moderate Agreement","Strong Agreement","Moderate Agreement","Strong Agreement","Moderate Agreement","Strong Agreement","Moderate Agreement","Strong Agreement","Moderate Agreement","Strong Agreement","Slight Agreement"
"46","A2967HKT6Y57AG:3U5NZHP4LS8PDRV3ESMTTZ07BMPHPQ","1",1,10,1,"5","<p style=""font-size:100px""><b>V</b></p><p style=""position: absolute; top: 30px; right: 30px; text-align:right; font-size:50px"""">N = 1</p>","V",0,73,483,1,"agree",14,15,15,14,16,"55","FEMALE","NOTHING","Moderate Disagreement","Strong Agreement","Slight Disagreement","Moderate Agreement","Strong Agreement","Very Strong Agreement","Strong Agreement","Moderate Agreement","Strong Agreement","Moderate Agreement","Strong Agreement","Moderate Agreement","Strong Agreement","Moderate Agreement","Strong Agreement","Moderate Agreement","Strong Agreement","Slight Agreement"
"47","A2967HKT6Y57AG:3U5NZHP4LS8PDRV3ESMTTZ07BMPHPQ","1",1,11,1,"5","<p style=""font-size:100px""><b>G</b></p><p style=""position: absolute; top: 30px; right: 30px; text-align:right; font-size:50px"""">N = 1</p>","G",0,69,627,0,"agree",14,15,15,14,16,"55","FEMALE","NOTHING","Moderate Disagreement","Strong Agreement","Slight Disagreement","Moderate Agreement","Strong Agreement","Very Strong Agreement","Strong Agreement","Moderate Agreement","Strong Agreement","Moderate Agreement","Strong Agreement","Moderate Agreement","Strong Agreement","Moderate Agreement","Strong Agreement","Moderate Agreement","Strong Agreement","Slight Agreement"
"48","A2967HKT6Y57AG:3U5NZHP4LS8PDRV3ESMTTZ07BMPHPQ","1",1,12,1,"5","<p style=""font-size:100px""><b>G</b></p><p style=""position: absolute; top: 30px; right: 30px; text-align:right; font-size:50px"""">N = 1</p>","G",0,73,335,1,"agree",14,15,15,14,16,"55","FEMALE","NOTHING","Moderate Disagreement","Strong Agreement","Slight Disagreement","Moderate Agreement","Strong Agreement","Very Strong Agreement","Strong Agreement","Moderate Agreement","Strong Agreement","Moderate Agreement","Strong Agreement","Moderate Agreement","Strong Agreement","Moderate Agreement","Strong Agreement","Moderate Agreement","Strong Agreement","Slight Agreement"
"49","A2967HKT6Y57AG:3U5NZHP4LS8PDRV3ESMTTZ07BMPHPQ","1",2,1,1,"5","<p style=""font-size:100px""><b>v</b></p><p style=""position: absolute; top: 30px; right: 30px; text-align:right; font-size:50px"""">N = 1</p>","v",0,NA,NA,0,"agree",17,14,15,18,14,"55","FEMALE","NOTHING","Moderate Disagreement","Strong Agreement","Slight Disagreement","Moderate Agreement","Strong Agreement","Very Strong Agreement","Strong Agreement","Moderate Agreement","Strong Agreement","Moderate Agreement","Strong Agreement","Moderate Agreement","Strong Agreement","Moderate Agreement","Strong Agreement","Moderate Agreement","Strong Agreement","Slight Agreement"
"50","A2967HKT6Y57AG:3U5NZHP4LS8PDRV3ESMTTZ07BMPHPQ","1",2,2,1,"5","<p style=""font-size:100px""><b>v</b></p><p style=""position: absolute; top: 30px; right: 30px; text-align:right; font-size:50px"""">N = 1</p>","v",0,69,989,0,"agree",17,14,15,18,14,"55","FEMALE","NOTHING","Moderate Disagreement","Strong Agreement","Slight Disagreement","Moderate Agreement","Strong Agreement","Very Strong Agreement","Strong Agreement","Moderate Agreement","Strong Agreement","Moderate Agreement","Strong Agreement","Moderate Agreement","Strong Agreement","Moderate Agreement","Strong Agreement","Moderate Agreement","Strong Agreement","Slight Agreement"
"51","A2967HKT6Y57AG:3U5NZHP4LS8PDRV3ESMTTZ07BMPHPQ","1",2,3,1,"5","<p style=""font-size:100px""><b>g</b></p><p style=""position: absolute; top: 30px; right: 30px; text-align:right; font-size:50px"""">N = 1</p>","g",0,73,391,1,"agree",17,14,15,18,14,"55","FEMALE","NOTHING","Moderate Disagreement","Strong Agreement","Slight Disagreement","Moderate Agreement","Strong Agreement","Very Strong Agreement","Strong Agreement","Moderate Agreement","Strong Agreement","Moderate Agreement","Strong Agreement","Moderate Agreement","Strong Agreement","Moderate Agreement","Strong Agreement","Moderate Agreement","Strong Agreement","Slight Agreement"
"52","A2967HKT6Y57AG:3U5NZHP4LS8PDRV3ESMTTZ07BMPHPQ","1",2,4,1,"5","<p style=""font-size:100px""><b>t</b></p><p style=""position: absolute; top: 30px; right: 30px; text-align:right; font-size:50px"""">N = 1</p>","t",0,73,304,1,"agree",17,14,15,18,14,"55","FEMALE","NOTHING","Moderate Disagreement","Strong Agreement","Slight Disagreement","Moderate Agreement","Strong Agreement","Very Strong Agreement","Strong Agreement","Moderate Agreement","Strong Agreement","Moderate Agreement","Strong Agreement","Moderate Agreement","Strong Agreement","Moderate Agreement","Strong Agreement","Moderate Agreement","Strong Agreement","Slight Agreement"
"53","A2967HKT6Y57AG:3U5NZHP4LS8PDRV3ESMTTZ07BMPHPQ","1",2,5,1,"5","<p style=""font-size:100px""><b>t</b></p><p style=""position: absolute; top: 30px; right: 30px; text-align:right; font-size:50px"""">N = 1</p>","t",0,73,314,1,"agree",17,14,15,18,14,"55","FEMALE","NOTHING","Moderate Disagreement","Strong Agreement","Slight Disagreement","Moderate Agreement","Strong Agreement","Very Strong Agreement","Strong Agreement","Moderate Agreement","Strong Agreement","Moderate Agreement","Strong Agreement","Moderate Agreement","Strong Agreement","Moderate Agreement","Strong Agreement","Moderate Agreement","Strong Agreement","Slight Agreement"
"54","A2967HKT6Y57AG:3U5NZHP4LS8PDRV3ESMTTZ07BMPHPQ","1",2,6,1,"5","<p style=""font-size:100px""><b>g</b></p><p style=""position: absolute; top: 30px; right: 30px; text-align:right; font-size:50px"""">N = 1</p>","g",0,69,292,0,"agree",17,14,15,18,14,"55","FEMALE","NOTHING","Moderate Disagreement","Strong Agreement","Slight Disagreement","Moderate Agreement","Strong Agreement","Very Strong Agreement","Strong Agreement","Moderate Agreement","Strong Agreement","Moderate Agreement","Strong Agreement","Moderate Agreement","Strong Agreement","Moderate Agreement","Strong Agreement","Moderate Agreement","Strong Agreement","Slight Agreement"
"55","A2967HKT6Y57AG:3U5NZHP4LS8PDRV3ESMTTZ07BMPHPQ","1",2,7,1,"5","<p style=""font-size:100px""><b>g</b></p><p style=""position: absolute; top: 30px; right: 30px; text-align:right; font-size:50px"""">N = 1</p>","g",0,73,325,1,"agree",17,14,15,18,14,"55","FEMALE","NOTHING","Moderate Disagreement","Strong Agreement","Slight Disagreement","Moderate Agreement","Strong Agreement","Very Strong Agreement","Strong Agreement","Moderate Agreement","Strong Agreement","Moderate Agreement","Strong Agreement","Moderate Agreement","Strong Agreement","Moderate Agreement","Strong Agreement","Moderate Agreement","Strong Agreement","Slight Agreement"
"56","A2967HKT6Y57AG:3U5NZHP4LS8PDRV3ESMTTZ07BMPHPQ","1",2,8,1,"5","<p style=""font-size:100px""><b>D</b></p><p style=""position: absolute; top: 30px; right: 30px; text-align:right; font-size:50px"""">N = 1</p>","D",0,73,543,1,"agree",17,14,15,18,14,"55","FEMALE","NOTHING","Moderate Disagreement","Strong Agreement","Slight Disagreement","Moderate Agreement","Strong Agreement","Very Strong Agreement","Strong Agreement","Moderate Agreement","Strong Agreement","Moderate Agreement","Strong Agreement","Moderate Agreement","Strong Agreement","Moderate Agreement","Strong Agreement","Moderate Agreement","Strong Agreement","Slight Agreement"
"57","A2967HKT6Y57AG:3U5NZHP4LS8PDRV3ESMTTZ07BMPHPQ","1",2,9,1,"5","<p style=""font-size:100px""><b>V</b></p><p style=""position: absolute; top: 30px; right: 30px; text-align:right; font-size:50px"""">N = 1</p>","V",0,69,334,0,"agree",17,14,15,18,14,"55","FEMALE","NOTHING","Moderate Disagreement","Strong Agreement","Slight Disagreement","Moderate Agreement","Strong Agreement","Very Strong Agreement","Strong Agreement","Moderate Agreement","Strong Agreement","Moderate Agreement","Strong Agreement","Moderate Agreement","Strong Agreement","Moderate Agreement","Strong Agreement","Moderate Agreement","Strong Agreement","Slight Agreement"
"58","A2967HKT6Y57AG:3U5NZHP4LS8PDRV3ESMTTZ07BMPHPQ","1",2,10,1,"5","<p style=""font-size:100px""><b>G</b></p><p style=""position: absolute; top: 30px; right: 30px; text-align:right; font-size:50px"""">N = 1</p>","G",0,73,318,1,"agree",17,14,15,18,14,"55","FEMALE","NOTHING","Moderate Disagreement","Strong Agreement","Slight Disagreement","Moderate Agreement","Strong Agreement","Very Strong Agreement","Strong Agreement","Moderate Agreement","Strong Agreement","Moderate Agreement","Strong Agreement","Moderate Agreement","Strong Agreement","Moderate Agreement","Strong Agreement","Moderate Agreement","Strong Agreement","Slight Agreement"
"59","A2967HKT6Y57AG:3U5NZHP4LS8PDRV3ESMTTZ07BMPHPQ","1",2,11,1,"5","<p style=""font-size:100px""><b>B</b></p><p style=""position: absolute; top: 30px; right: 30px; text-align:right; font-size:50px"""">N = 1</p>","B",0,69,280,0,"agree",17,14,15,18,14,"55","FEMALE","NOTHING","Moderate Disagreement","Strong Agreement","Slight Disagreement","Moderate Agreement","Strong Agreement","Very Strong Agreement","Strong Agreement","Moderate Agreement","Strong Agreement","Moderate Agreement","Strong Agreement","Moderate Agreement","Strong Agreement","Moderate Agreement","Strong Agreement","Moderate Agreement","Strong Agreement","Slight Agreement"
"60","A2967HKT6Y57AG:3U5NZHP4LS8PDRV3ESMTTZ07BMPHPQ","1",2,12,1,"5","<p style=""font-size:100px""><b>B</b></p><p style=""position: absolute; top: 30px; right: 30px; text-align:right; font-size:50px"""">N = 1</p>","B",0,73,298,1,"agree",17,14,15,18,14,"55","FEMALE","NOTHING","Moderate Disagreement","Strong Agreement","Slight Disagreement","Moderate Agreement","Strong Agreement","Very Strong Agreement","Strong Agreement","Moderate Agreement","Strong Agreement","Moderate Agreement","Strong Agreement","Moderate Agreement","Strong Agreement","Moderate Agreement","Strong Agreement","Moderate Agreement","Strong Agreement","Slight Agreement"
"61","A2967HKT6Y57AG:3U5NZHP4LS8PDRV3ESMTTZ07BMPHPQ","1",3,1,2,"5","<p style=""font-size:100px""><b>p</b></p><p style=""position: absolute; top: 30px; right: 30px; text-align:right; font-size:50px"""">N = 2</p>","p",0,NA,NA,0,"agree",19,13,15,14,18,"55","FEMALE","NOTHING","Moderate Disagreement","Strong Agreement","Slight Disagreement","Moderate Agreement","Strong Agreement","Very Strong Agreement","Strong Agreement","Moderate Agreement","Strong Agreement","Moderate Agreement","Strong Agreement","Moderate Agreement","Strong Agreement","Moderate Agreement","Strong Agreement","Moderate Agreement","Strong Agreement","Slight Agreement"
"62","A2967HKT6Y57AG:3U5NZHP4LS8PDRV3ESMTTZ07BMPHPQ","1",3,2,2,"5","<p style=""font-size:100px""><b>b</b></p><p style=""position: absolute; top: 30px; right: 30px; text-align:right; font-size:50px"""">N = 2</p>","b",0,73,107,1,"agree",19,13,15,14,18,"55","FEMALE","NOTHING","Moderate Disagreement","Strong Agreement","Slight Disagreement","Moderate Agreement","Strong Agreement","Very Strong Agreement","Strong Agreement","Moderate Agreement","Strong Agreement","Moderate Agreement","Strong Agreement","Moderate Agreement","Strong Agreement","Moderate Agreement","Strong Agreement","Moderate Agreement","Strong Agreement","Slight Agreement"
"63","A2967HKT6Y57AG:3U5NZHP4LS8PDRV3ESMTTZ07BMPHPQ","1",3,3,2,"5","<p style=""font-size:100px""><b>T</b></p><p style=""position: absolute; top: 30px; right: 30px; text-align:right; font-size:50px"""">N = 2</p>","T",0,NA,NA,0,"agree",19,13,15,14,18,"55","FEMALE","NOTHING","Moderate Disagreement","Strong Agreement","Slight Disagreement","Moderate Agreement","Strong Agreement","Very Strong Agreement","Strong Agreement","Moderate Agreement","Strong Agreement","Moderate Agreement","Strong Agreement","Moderate Agreement","Strong Agreement","Moderate Agreement","Strong Agreement","Moderate Agreement","Strong Agreement","Slight Agreement"
"64","A2967HKT6Y57AG:3U5NZHP4LS8PDRV3ESMTTZ07BMPHPQ","1",3,4,2,"5","<p style=""font-size:100px""><b>b</b></p><p style=""position: absolute; top: 30px; right: 30px; text-align:right; font-size:50px"""">N = 2</p>","b",0,NA,NA,0,"agree",19,13,15,14,18,"55","FEMALE","NOTHING","Moderate Disagreement","Strong Agreement","Slight Disagreement","Moderate Agreement","Strong Agreement","Very Strong Agreement","Strong Agreement","Moderate Agreement","Strong Agreement","Moderate Agreement","Strong Agreement","Moderate Agreement","Strong Agreement","Moderate Agreement","Strong Agreement","Moderate Agreement","Strong Agreement","Slight Agreement"
"65","A2967HKT6Y57AG:3U5NZHP4LS8PDRV3ESMTTZ07BMPHPQ","1",3,5,2,"5","<p style=""font-size:100px""><b>B</b></p><p style=""position: absolute; top: 30px; right: 30px; text-align:right; font-size:50px"""">N = 2</p>","B",0,NA,NA,0,"agree",19,13,15,14,18,"55","FEMALE","NOTHING","Moderate Disagreement","Strong Agreement","Slight Disagreement","Moderate Agreement","Strong Agreement","Very Strong Agreement","Strong Agreement","Moderate Agreement","Strong Agreement","Moderate Agreement","Strong Agreement","Moderate Agreement","Strong Agreement","Moderate Agreement","Strong Agreement","Moderate Agreement","Strong Agreement","Slight Agreement"
"66","A2967HKT6Y57AG:3U5NZHP4LS8PDRV3ESMTTZ07BMPHPQ","1",3,6,2,"5","<p style=""font-size:100px""><b>t</b></p><p style=""position: absolute; top: 30px; right: 30px; text-align:right; font-size:50px"""">N = 2</p>","t",0,NA,NA,0,"agree",19,13,15,14,18,"55","FEMALE","NOTHING","Moderate Disagreement","Strong Agreement","Slight Disagreement","Moderate Agreement","Strong Agreement","Very Strong Agreement","Strong Agreement","Moderate Agreement","Strong Agreement","Moderate Agreement","Strong Agreement","Moderate Agreement","Strong Agreement","Moderate Agreement","Strong Agreement","Moderate Agreement","Strong Agreement","Slight Agreement"
"67","A2967HKT6Y57AG:3U5NZHP4LS8PDRV3ESMTTZ07BMPHPQ","1",3,7,2,"5","<p style=""font-size:100px""><b>v</b></p><p style=""position: absolute; top: 30px; right: 30px; text-align:right; font-size:50px"""">N = 2</p>","v",0,NA,NA,0,"agree",19,13,15,14,18,"55","FEMALE","NOTHING","Moderate Disagreement","Strong Agreement","Slight Disagreement","Moderate Agreement","Strong Agreement","Very Strong Agreement","Strong Agreement","Moderate Agreement","Strong Agreement","Moderate Agreement","Strong Agreement","Moderate Agreement","Strong Agreement","Moderate Agreement","Strong Agreement","Moderate Agreement","Strong Agreement","Slight Agreement"
"68","A2967HKT6Y57AG:3U5NZHP4LS8PDRV3ESMTTZ07BMPHPQ","1",3,8,2,"5","<p style=""font-size:100px""><b>t</b></p><p style=""position: absolute; top: 30px; right: 30px; text-align:right; font-size:50px"""">N = 2</p>","t",0,NA,NA,0,"agree",19,13,15,14,18,"55","FEMALE","NOTHING","Moderate Disagreement","Strong Agreement","Slight Disagreement","Moderate Agreement","Strong Agreement","Very Strong Agreement","Strong Agreement","Moderate Agreement","Strong Agreement","Moderate Agreement","Strong Agreement","Moderate Agreement","Strong Agreement","Moderate Agreement","Strong Agreement","Moderate Agreement","Strong Agreement","Slight Agreement"
"69","A2967HKT6Y57AG:3U5NZHP4LS8PDRV3ESMTTZ07BMPHPQ","1",3,9,2,"5","<p style=""font-size:100px""><b>v</b></p><p style=""position: absolute; top: 30px; right: 30px; text-align:right; font-size:50px"""">N = 2</p>","v",0,NA,NA,0,"agree",19,13,15,14,18,"55","FEMALE","NOTHING","Moderate Disagreement","Strong Agreement","Slight Disagreement","Moderate Agreement","Strong Agreement","Very Strong Agreement","Strong Agreement","Moderate Agreement","Strong Agreement","Moderate Agreement","Strong Agreement","Moderate Agreement","Strong Agreement","Moderate Agreement","Strong Agreement","Moderate Agreement","Strong Agreement","Slight Agreement"
"70","A2967HKT6Y57AG:3U5NZHP4LS8PDRV3ESMTTZ07BMPHPQ","1",3,10,2,"5","<p style=""font-size:100px""><b>g</b></p><p style=""position: absolute; top: 30px; right: 30px; text-align:right; font-size:50px"""">N = 2</p>","g",0,NA,NA,0,"agree",19,13,15,14,18,"55","FEMALE","NOTHING","Moderate Disagreement","Strong Agreement","Slight Disagreement","Moderate Agreement","Strong Agreement","Very Strong Agreement","Strong Agreement","Moderate Agreement","Strong Agreement","Moderate Agreement","Strong Agreement","Moderate Agreement","Strong Agreement","Moderate Agreement","Strong Agreement","Moderate Agreement","Strong Agreement","Slight Agreement"
"71","A2967HKT6Y57AG:3U5NZHP4LS8PDRV3ESMTTZ07BMPHPQ","1",3,11,2,"5","<p style=""font-size:100px""><b>g</b></p><p style=""position: absolute; top: 30px; right: 30px; text-align:right; font-size:50px"""">N = 2</p>","g",0,NA,NA,0,"agree",19,13,15,14,18,"55","FEMALE","NOTHING","Moderate Disagreement","Strong Agreement","Slight Disagreement","Moderate Agreement","Strong Agreement","Very Strong Agreement","Strong Agreement","Moderate Agreement","Strong Agreement","Moderate Agreement","Strong Agreement","Moderate Agreement","Strong Agreement","Moderate Agreement","Strong Agreement","Moderate Agreement","Strong Agreement","Slight Agreement"
"72","A2967HKT6Y57AG:3U5NZHP4LS8PDRV3ESMTTZ07BMPHPQ","1",3,12,2,"5","<p style=""font-size:100px""><b>g</b></p><p style=""position: absolute; top: 30px; right: 30px; text-align:right; font-size:50px"""">N = 2</p>","g",0,73,683,1,"agree",19,13,15,14,18,"55","FEMALE","NOTHING","Moderate Disagreement","Strong Agreement","Slight Disagreement","Moderate Agreement","Strong Agreement","Very Strong Agreement","Strong Agreement","Moderate Agreement","Strong Agreement","Moderate Agreement","Strong Agreement","Moderate Agreement","Strong Agreement","Moderate Agreement","Strong Agreement","Moderate Agreement","Strong Agreement","Slight Agreement"
"73","A2967HKT6Y57AG:3U5NZHP4LS8PDRV3ESMTTZ07BMPHPQ","1",4,1,3,"5","<p style=""font-size:100px""><b>G</b></p><p style=""position: absolute; top: 30px; right: 30px; text-align:right; font-size:50px"""">N = 3</p>","G",0,NA,NA,0,"agree",19,15,15,17,15,"55","FEMALE","NOTHING","Moderate Disagreement","Strong Agreement","Slight Disagreement","Moderate Agreement","Strong Agreement","Very Strong Agreement","Strong Agreement","Moderate Agreement","Strong Agreement","Moderate Agreement","Strong Agreement","Moderate Agreement","Strong Agreement","Moderate Agreement","Strong Agreement","Moderate Agreement","Strong Agreement","Slight Agreement"
"74","A2967HKT6Y57AG:3U5NZHP4LS8PDRV3ESMTTZ07BMPHPQ","1",4,2,3,"5","<p style=""font-size:100px""><b>B</b></p><p style=""position: absolute; top: 30px; right: 30px; text-align:right; font-size:50px"""">N = 3</p>","B",0,73,228,1,"agree",19,15,15,17,15,"55","FEMALE","NOTHING","Moderate Disagreement","Strong Agreement","Slight Disagreement","Moderate Agreement","Strong Agreement","Very Strong Agreement","Strong Agreement","Moderate Agreement","Strong Agreement","Moderate Agreement","Strong Agreement","Moderate Agreement","Strong Agreement","Moderate Agreement","Strong Agreement","Moderate Agreement","Strong Agreement","Slight Agreement"
"75","A2967HKT6Y57AG:3U5NZHP4LS8PDRV3ESMTTZ07BMPHPQ","1",4,3,3,"5","<p style=""font-size:100px""><b>t</b></p><p style=""position: absolute; top: 30px; right: 30px; text-align:right; font-size:50px"""">N = 3</p>","t",0,73,366,1,"agree",19,15,15,17,15,"55","FEMALE","NOTHING","Moderate Disagreement","Strong Agreement","Slight Disagreement","Moderate Agreement","Strong Agreement","Very Strong Agreement","Strong Agreement","Moderate Agreement","Strong Agreement","Moderate Agreement","Strong Agreement","Moderate Agreement","Strong Agreement","Moderate Agreement","Strong Agreement","Moderate Agreement","Strong Agreement","Slight Agreement"
"76","A2967HKT6Y57AG:3U5NZHP4LS8PDRV3ESMTTZ07BMPHPQ","1",4,4,3,"5","<p style=""font-size:100px""><b>G</b></p><p style=""position: absolute; top: 30px; right: 30px; text-align:right; font-size:50px"""">N = 3</p>","G",0,69,767,0,"agree",19,15,15,17,15,"55","FEMALE","NOTHING","Moderate Disagreement","Strong Agreement","Slight Disagreement","Moderate Agreement","Strong Agreement","Very Strong Agreement","Strong Agreement","Moderate Agreement","Strong Agreement","Moderate Agreement","Strong Agreement","Moderate Agreement","Strong Agreement","Moderate Agreement","Strong Agreement","Moderate Agreement","Strong Agreement","Slight Agreement"
"77","A2967HKT6Y57AG:3U5NZHP4LS8PDRV3ESMTTZ07BMPHPQ","1",4,5,3,"5","<p style=""font-size:100px""><b>B</b></p><p style=""position: absolute; top: 30px; right: 30px; text-align:right; font-size:50px"""">N = 3</p>","B",0,NA,NA,0,"agree",19,15,15,17,15,"55","FEMALE","NOTHING","Moderate Disagreement","Strong Agreement","Slight Disagreement","Moderate Agreement","Strong Agreement","Very Strong Agreement","Strong Agreement","Moderate Agreement","Strong Agreement","Moderate Agreement","Strong Agreement","Moderate Agreement","Strong Agreement","Moderate Agreement","Strong Agreement","Moderate Agreement","Strong Agreement","Slight Agreement"
"78","A2967HKT6Y57AG:3U5NZHP4LS8PDRV3ESMTTZ07BMPHPQ","1",4,6,3,"5","<p style=""font-size:100px""><b>t</b></p><p style=""position: absolute; top: 30px; right: 30px; text-align:right; font-size:50px"""">N = 3</p>","t",0,NA,NA,0,"agree",19,15,15,17,15,"55","FEMALE","NOTHING","Moderate Disagreement","Strong Agreement","Slight Disagreement","Moderate Agreement","Strong Agreement","Very Strong Agreement","Strong Agreement","Moderate Agreement","Strong Agreement","Moderate Agreement","Strong Agreement","Moderate Agreement","Strong Agreement","Moderate Agreement","Strong Agreement","Moderate Agreement","Strong Agreement","Slight Agreement"
"79","A2967HKT6Y57AG:3U5NZHP4LS8PDRV3ESMTTZ07BMPHPQ","1",4,7,3,"5","<p style=""font-size:100px""><b>G</b></p><p style=""position: absolute; top: 30px; right: 30px; text-align:right; font-size:50px"""">N = 3</p>","G",0,NA,NA,0,"agree",19,15,15,17,15,"55","FEMALE","NOTHING","Moderate Disagreement","Strong Agreement","Slight Disagreement","Moderate Agreement","Strong Agreement","Very Strong Agreement","Strong Agreement","Moderate Agreement","Strong Agreement","Moderate Agreement","Strong Agreement","Moderate Agreement","Strong Agreement","Moderate Agreement","Strong Agreement","Moderate Agreement","Strong Agreement","Slight Agreement"
"80","A2967HKT6Y57AG:3U5NZHP4LS8PDRV3ESMTTZ07BMPHPQ","1",4,8,3,"5","<p style=""font-size:100px""><b>v</b></p><p style=""position: absolute; top: 30px; right: 30px; text-align:right; font-size:50px"""">N = 3</p>","v",0,NA,NA,0,"agree",19,15,15,17,15,"55","FEMALE","NOTHING","Moderate Disagreement","Strong Agreement","Slight Disagreement","Moderate Agreement","Strong Agreement","Very Strong Agreement","Strong Agreement","Moderate Agreement","Strong Agreement","Moderate Agreement","Strong Agreement","Moderate Agreement","Strong Agreement","Moderate Agreement","Strong Agreement","Moderate Agreement","Strong Agreement","Slight Agreement"
"81","A2967HKT6Y57AG:3U5NZHP4LS8PDRV3ESMTTZ07BMPHPQ","1",4,9,3,"5","<p style=""font-size:100px""><b>d</b></p><p style=""position: absolute; top: 30px; right: 30px; text-align:right; font-size:50px"""">N = 3</p>","d",0,73,558,1,"agree",19,15,15,17,15,"55","FEMALE","NOTHING","Moderate Disagreement","Strong Agreement","Slight Disagreement","Moderate Agreement","Strong Agreement","Very Strong Agreement","Strong Agreement","Moderate Agreement","Strong Agreement","Moderate Agreement","Strong Agreement","Moderate Agreement","Strong Agreement","Moderate Agreement","Strong Agreement","Moderate Agreement","Strong Agreement","Slight Agreement"
"82","A2967HKT6Y57AG:3U5NZHP4LS8PDRV3ESMTTZ07BMPHPQ","1",4,10,3,"5","<p style=""font-size:100px""><b>V</b></p><p style=""position: absolute; top: 30px; right: 30px; text-align:right; font-size:50px"""">N = 3</p>","V",0,73,72,1,"agree",19,15,15,17,15,"55","FEMALE","NOTHING","Moderate Disagreement","Strong Agreement","Slight Disagreement","Moderate Agreement","Strong Agreement","Very Strong Agreement","Strong Agreement","Moderate Agreement","Strong Agreement","Moderate Agreement","Strong Agreement","Moderate Agreement","Strong Agreement","Moderate Agreement","Strong Agreement","Moderate Agreement","Strong Agreement","Slight Agreement"
"83","A2967HKT6Y57AG:3U5NZHP4LS8PDRV3ESMTTZ07BMPHPQ","1",4,11,3,"5","<p style=""font-size:100px""><b>g</b></p><p style=""position: absolute; top: 30px; right: 30px; text-align:right; font-size:50px"""">N = 3</p>","g",0,73,974,1,"agree",19,15,15,17,15,"55","FEMALE","NOTHING","Moderate Disagreement","Strong Agreement","Slight Disagreement","Moderate Agreement","Strong Agreement","Very Strong Agreement","Strong Agreement","Moderate Agreement","Strong Agreement","Moderate Agreement","Strong Agreement","Moderate Agreement","Strong Agreement","Moderate Agreement","Strong Agreement","Moderate Agreement","Strong Agreement","Slight Agreement"
"84","A2967HKT6Y57AG:3U5NZHP4LS8PDRV3ESMTTZ07BMPHPQ","1",4,12,3,"5","<p style=""font-size:100px""><b>v</b></p><p style=""position: absolute; top: 30px; right: 30px; text-align:right; font-size:50px"""">N = 3</p>","v",0,69,640,0,"agree",19,15,15,17,15,"55","FEMALE","NOTHING","Moderate Disagreement","Strong Agreement","Slight Disagreement","Moderate Agreement","Strong Agreement","Very Strong Agreement","Strong Agreement","Moderate Agreement","Strong Agreement","Moderate Agreement","Strong Agreement","Moderate Agreement","Strong Agreement","Moderate Agreement","Strong Agreement","Moderate Agreement","Strong Agreement","Slight Agreement"
"85","A2967HKT6Y57AG:3U5NZHP4LS8PDRV3ESMTTZ07BMPHPQ","1",5,1,1,"5","<p style=""font-size:100px""><b>D</b></p><p style=""position: absolute; top: 30px; right: 30px; text-align:right; font-size:50px"""">N = 1</p>","D",0,NA,NA,0,"agree",18,16,15,17,15,"55","FEMALE","NOTHING","Moderate Disagreement","Strong Agreement","Slight Disagreement","Moderate Agreement","Strong Agreement","Very Strong Agreement","Strong Agreement","Moderate Agreement","Strong Agreement","Moderate Agreement","Strong Agreement","Moderate Agreement","Strong Agreement","Moderate Agreement","Strong Agreement","Moderate Agreement","Strong Agreement","Slight Agreement"
"86","A2967HKT6Y57AG:3U5NZHP4LS8PDRV3ESMTTZ07BMPHPQ","1",5,2,1,"5","<p style=""font-size:100px""><b>g</b></p><p style=""position: absolute; top: 30px; right: 30px; text-align:right; font-size:50px"""">N = 1</p>","g",0,73,178,1,"agree",18,16,15,17,15,"55","FEMALE","NOTHING","Moderate Disagreement","Strong Agreement","Slight Disagreement","Moderate Agreement","Strong Agreement","Very Strong Agreement","Strong Agreement","Moderate Agreement","Strong Agreement","Moderate Agreement","Strong Agreement","Moderate Agreement","Strong Agreement","Moderate Agreement","Strong Agreement","Moderate Agreement","Strong Agreement","Slight Agreement"
"87","A2967HKT6Y57AG:3U5NZHP4LS8PDRV3ESMTTZ07BMPHPQ","1",5,3,1,"5","<p style=""font-size:100px""><b>g</b></p><p style=""position: absolute; top: 30px; right: 30px; text-align:right; font-size:50px"""">N = 1</p>","g",0,73,438,1,"agree",18,16,15,17,15,"55","FEMALE","NOTHING","Moderate Disagreement","Strong Agreement","Slight Disagreement","Moderate Agreement","Strong Agreement","Very Strong Agreement","Strong Agreement","Moderate Agreement","Strong Agreement","Moderate Agreement","Strong Agreement","Moderate Agreement","Strong Agreement","Moderate Agreement","Strong Agreement","Moderate Agreement","Strong Agreement","Slight Agreement"
"88","A2967HKT6Y57AG:3U5NZHP4LS8PDRV3ESMTTZ07BMPHPQ","1",5,4,1,"5","<p style=""font-size:100px""><b>V</b></p><p style=""position: absolute; top: 30px; right: 30px; text-align:right; font-size:50px"""">N = 1</p>","V",0,69,184,0,"agree",18,16,15,17,15,"55","FEMALE","NOTHING","Moderate Disagreement","Strong Agreement","Slight Disagreement","Moderate Agreement","Strong Agreement","Very Strong Agreement","Strong Agreement","Moderate Agreement","Strong Agreement","Moderate Agreement","Strong Agreement","Moderate Agreement","Strong Agreement","Moderate Agreement","Strong Agreement","Moderate Agreement","Strong Agreement","Slight Agreement"
"89","A2967HKT6Y57AG:3U5NZHP4LS8PDRV3ESMTTZ07BMPHPQ","1",5,5,1,"5","<p style=""font-size:100px""><b>B</b></p><p style=""position: absolute; top: 30px; right: 30px; text-align:right; font-size:50px"""">N = 1</p>","B",0,NA,NA,0,"agree",18,16,15,17,15,"55","FEMALE","NOTHING","Moderate Disagreement","Strong Agreement","Slight Disagreement","Moderate Agreement","Strong Agreement","Very Strong Agreement","Strong Agreement","Moderate Agreement","Strong Agreement","Moderate Agreement","Strong Agreement","Moderate Agreement","Strong Agreement","Moderate Agreement","Strong Agreement","Moderate Agreement","Strong Agreement","Slight Agreement"
"90","A2967HKT6Y57AG:3U5NZHP4LS8PDRV3ESMTTZ07BMPHPQ","1",5,6,1,"5","<p style=""font-size:100px""><b>B</b></p><p style=""position: absolute; top: 30px; right: 30px; text-align:right; font-size:50px"""">N = 1</p>","B",0,NA,NA,0,"agree",18,16,15,17,15,"55","FEMALE","NOTHING","Moderate Disagreement","Strong Agreement","Slight Disagreement","Moderate Agreement","Strong Agreement","Very Strong Agreement","Strong Agreement","Moderate Agreement","Strong Agreement","Moderate Agreement","Strong Agreement","Moderate Agreement","Strong Agreement","Moderate Agreement","Strong Agreement","Moderate Agreement","Strong Agreement","Slight Agreement"
"91","A2967HKT6Y57AG:3U5NZHP4LS8PDRV3ESMTTZ07BMPHPQ","1",5,7,1,"5","<p style=""font-size:100px""><b>V</b></p><p style=""position: absolute; top: 30px; right: 30px; text-align:right; font-size:50px"""">N = 1</p>","V",0,73,286,1,"agree",18,16,15,17,15,"55","FEMALE","NOTHING","Moderate Disagreement","Strong Agreement","Slight Disagreement","Moderate Agreement","Strong Agreement","Very Strong Agreement","Strong Agreement","Moderate Agreement","Strong Agreement","Moderate Agreement","Strong Agreement","Moderate Agreement","Strong Agreement","Moderate Agreement","Strong Agreement","Moderate Agreement","Strong Agreement","Slight Agreement"
"92","A2967HKT6Y57AG:3U5NZHP4LS8PDRV3ESMTTZ07BMPHPQ","1",5,8,1,"5","<p style=""font-size:100px""><b>V</b></p><p style=""position: absolute; top: 30px; right: 30px; text-align:right; font-size:50px"""">N = 1</p>","V",0,73,96,1,"agree",18,16,15,17,15,"55","FEMALE","NOTHING","Moderate Disagreement","Strong Agreement","Slight Disagreement","Moderate Agreement","Strong Agreement","Very Strong Agreement","Strong Agreement","Moderate Agreement","Strong Agreement","Moderate Agreement","Strong Agreement","Moderate Agreement","Strong Agreement","Moderate Agreement","Strong Agreement","Moderate Agreement","Strong Agreement","Slight Agreement"
"93","A2967HKT6Y57AG:3U5NZHP4LS8PDRV3ESMTTZ07BMPHPQ","1",5,9,1,"5","<p style=""font-size:100px""><b>p</b></p><p style=""position: absolute; top: 30px; right: 30px; text-align:right; font-size:50px"""">N = 1</p>","p",0,69,26,0,"agree",18,16,15,17,15,"55","FEMALE","NOTHING","Moderate Disagreement","Strong Agreement","Slight Disagreement","Moderate Agreement","Strong Agreement","Very Strong Agreement","Strong Agreement","Moderate Agreement","Strong Agreement","Moderate Agreement","Strong Agreement","Moderate Agreement","Strong Agreement","Moderate Agreement","Strong Agreement","Moderate Agreement","Strong Agreement","Slight Agreement"
"94","A2967HKT6Y57AG:3U5NZHP4LS8PDRV3ESMTTZ07BMPHPQ","1",5,10,1,"5","<p style=""font-size:100px""><b>p</b></p><p style=""position: absolute; top: 30px; right: 30px; text-align:right; font-size:50px"""">N = 1</p>","p",0,NA,NA,0,"agree",18,16,15,17,15,"55","FEMALE","NOTHING","Moderate Disagreement","Strong Agreement","Slight Disagreement","Moderate Agreement","Strong Agreement","Very Strong Agreement","Strong Agreement","Moderate Agreement","Strong Agreement","Moderate Agreement","Strong Agreement","Moderate Agreement","Strong Agreement","Moderate Agreement","Strong Agreement","Moderate Agreement","Strong Agreement","Slight Agreement"
"95","A2967HKT6Y57AG:3U5NZHP4LS8PDRV3ESMTTZ07BMPHPQ","1",5,11,1,"5","<p style=""font-size:100px""><b>d</b></p><p style=""position: absolute; top: 30px; right: 30px; text-align:right; font-size:50px"""">N = 1</p>","d",0,NA,NA,0,"agree",18,16,15,17,15,"55","FEMALE","NOTHING","Moderate Disagreement","Strong Agreement","Slight Disagreement","Moderate Agreement","Strong Agreement","Very Strong Agreement","Strong Agreement","Moderate Agreement","Strong Agreement","Moderate Agreement","Strong Agreement","Moderate Agreement","Strong Agreement","Moderate Agreement","Strong Agreement","Moderate Agreement","Strong Agreement","Slight Agreement"
"96","A2967HKT6Y57AG:3U5NZHP4LS8PDRV3ESMTTZ07BMPHPQ","1",5,12,1,"5","<p style=""font-size:100px""><b>V</b></p><p style=""position: absolute; top: 30px; right: 30px; text-align:right; font-size:50px"""">N = 1</p>","V",0,NA,NA,0,"agree",18,16,15,17,15,"55","FEMALE","NOTHING","Moderate Disagreement","Strong Agreement","Slight Disagreement","Moderate Agreement","Strong Agreement","Very Strong Agreement","Strong Agreement","Moderate Agreement","Strong Agreement","Moderate Agreement","Strong Agreement","Moderate Agreement","Strong Agreement","Moderate Agreement","Strong Agreement","Moderate Agreement","Strong Agreement","Slight Agreement"
"97","A2967HKT6Y57AG:3U5NZHP4LS8PDRV3ESMTTZ07BMPHPQ","1",6,1,1,"50","<p style=""font-size:100px""><b>V</b></p><p style=""position: absolute; top: 30px; right: 30px; text-align:right; font-size:50px"""">N = 1</p>","V",0,NA,NA,0,"agree",20,15,16,19,16,"55","FEMALE","NOTHING","Moderate Disagreement","Strong Agreement","Slight Disagreement","Moderate Agreement","Strong Agreement","Very Strong Agreement","Strong Agreement","Moderate Agreement","Strong Agreement","Moderate Agreement","Strong Agreement","Moderate Agreement","Strong Agreement","Moderate Agreement","Strong Agreement","Moderate Agreement","Strong Agreement","Slight Agreement"
"98","A2967HKT6Y57AG:3U5NZHP4LS8PDRV3ESMTTZ07BMPHPQ","1",6,2,1,"50","<p style=""font-size:100px""><b>V</b></p><p style=""position: absolute; top: 30px; right: 30px; text-align:right; font-size:50px"""">N = 1</p>","V",0,NA,NA,0,"agree",20,15,16,19,16,"55","FEMALE","NOTHING","Moderate Disagreement","Strong Agreement","Slight Disagreement","Moderate Agreement","Strong Agreement","Very Strong Agreement","Strong Agreement","Moderate Agreement","Strong Agreement","Moderate Agreement","Strong Agreement","Moderate Agreement","Strong Agreement","Moderate Agreement","Strong Agreement","Moderate Agreement","Strong Agreement","Slight Agreement"
"99","A2967HKT6Y57AG:3U5NZHP4LS8PDRV3ESMTTZ07BMPHPQ","1",6,3,1,"50","<p style=""font-size:100px""><b>V</b></p><p style=""position: absolute; top: 30px; right: 30px; text-align:right; font-size:50px"""">N = 1</p>","V",0,NA,NA,0,"agree",20,15,16,19,16,"55","FEMALE","NOTHING","Moderate Disagreement","Strong Agreement","Slight Disagreement","Moderate Agreement","Strong Agreement","Very Strong Agreement","Strong Agreement","Moderate Agreement","Strong Agreement","Moderate Agreement","Strong Agreement","Moderate Agreement","Strong Agreement","Moderate Agreement","Strong Agreement","Moderate Agreement","Strong Agreement","Slight Agreement"
"100","A2967HKT6Y57AG:3U5NZHP4LS8PDRV3ESMTTZ07BMPHPQ","1",6,4,1,"50","<p style=""font-size:100px""><b>V</b></p><p style=""position: absolute; top: 30px; right: 30px; text-align:right; font-size:50px"""">N = 1</p>","V",0,69,710,0,"agree",20,15,16,19,16,"55","FEMALE","NOTHING","Moderate Disagreement","Strong Agreement","Slight Disagreement","Moderate Agreement","Strong Agreement","Very Strong Agreement","Strong Agreement","Moderate Agreement","Strong Agreement","Moderate Agreement","Strong Agreement","Moderate Agreement","Strong Agreement","Moderate Agreement","Strong Agreement","Moderate Agreement","Strong Agreement","Slight Agreement"
"101","A2967HKT6Y57AG:3U5NZHP4LS8PDRV3ESMTTZ07BMPHPQ","1",6,5,1,"50","<p style=""font-size:100px""><b>g</b></p><p style=""position: absolute; top: 30px; right: 30px; text-align:right; font-size:50px"""">N = 1</p>","g",0,73,318,1,"agree",20,15,16,19,16,"55","FEMALE","NOTHING","Moderate Disagreement","Strong Agreement","Slight Disagreement","Moderate Agreement","Strong Agreement","Very Strong Agreement","Strong Agreement","Moderate Agreement","Strong Agreement","Moderate Agreement","Strong Agreement","Moderate Agreement","Strong Agreement","Moderate Agreement","Strong Agreement","Moderate Agreement","Strong Agreement","Slight Agreement"
"102","A2967HKT6Y57AG:3U5NZHP4LS8PDRV3ESMTTZ07BMPHPQ","1",6,6,1,"50","<p style=""font-size:100px""><b>t</b></p><p style=""position: absolute; top: 30px; right: 30px; text-align:right; font-size:50px"""">N = 1</p>","t",0,NA,NA,0,"agree",20,15,16,19,16,"55","FEMALE","NOTHING","Moderate Disagreement","Strong Agreement","Slight Disagreement","Moderate Agreement","Strong Agreement","Very Strong Agreement","Strong Agreement","Moderate Agreement","Strong Agreement","Moderate Agreement","Strong Agreement","Moderate Agreement","Strong Agreement","Moderate Agreement","Strong Agreement","Moderate Agreement","Strong Agreement","Slight Agreement"
"103","A2967HKT6Y57AG:3U5NZHP4LS8PDRV3ESMTTZ07BMPHPQ","1",6,7,1,"50","<p style=""font-size:100px""><b>b</b></p><p style=""position: absolute; top: 30px; right: 30px; text-align:right; font-size:50px"""">N = 1</p>","b",0,NA,NA,0,"agree",20,15,16,19,16,"55","FEMALE","NOTHING","Moderate Disagreement","Strong Agreement","Slight Disagreement","Moderate Agreement","Strong Agreement","Very Strong Agreement","Strong Agreement","Moderate Agreement","Strong Agreement","Moderate Agreement","Strong Agreement","Moderate Agreement","Strong Agreement","Moderate Agreement","Strong Agreement","Moderate Agreement","Strong Agreement","Slight Agreement"
"104","A2967HKT6Y57AG:3U5NZHP4LS8PDRV3ESMTTZ07BMPHPQ","1",6,8,1,"50","<p style=""font-size:100px""><b>t</b></p><p style=""position: absolute; top: 30px; right: 30px; text-align:right; font-size:50px"""">N = 1</p>","t",0,73,422,1,"agree",20,15,16,19,16,"55","FEMALE","NOTHING","Moderate Disagreement","Strong Agreement","Slight Disagreement","Moderate Agreement","Strong Agreement","Very Strong Agreement","Strong Agreement","Moderate Agreement","Strong Agreement","Moderate Agreement","Strong Agreement","Moderate Agreement","Strong Agreement","Moderate Agreement","Strong Agreement","Moderate Agreement","Strong Agreement","Slight Agreement"
"105","A2967HKT6Y57AG:3U5NZHP4LS8PDRV3ESMTTZ07BMPHPQ","1",6,9,1,"50","<p style=""font-size:100px""><b>v</b></p><p style=""position: absolute; top: 30px; right: 30px; text-align:right; font-size:50px"""">N = 1</p>","v",0,73,678,1,"agree",20,15,16,19,16,"55","FEMALE","NOTHING","Moderate Disagreement","Strong Agreement","Slight Disagreement","Moderate Agreement","Strong Agreement","Very Strong Agreement","Strong Agreement","Moderate Agreement","Strong Agreement","Moderate Agreement","Strong Agreement","Moderate Agreement","Strong Agreement","Moderate Agreement","Strong Agreement","Moderate Agreement","Strong Agreement","Slight Agreement"
"106","A2967HKT6Y57AG:3U5NZHP4LS8PDRV3ESMTTZ07BMPHPQ","1",6,10,1,"50","<p style=""font-size:100px""><b>v</b></p><p style=""position: absolute; top: 30px; right: 30px; text-align:right; font-size:50px"""">N = 1</p>","v",0,69,311,0,"agree",20,15,16,19,16,"55","FEMALE","NOTHING","Moderate Disagreement","Strong Agreement","Slight Disagreement","Moderate Agreement","Strong Agreement","Very Strong Agreement","Strong Agreement","Moderate Agreement","Strong Agreement","Moderate Agreement","Strong Agreement","Moderate Agreement","Strong Agreement","Moderate Agreement","Strong Agreement","Moderate Agreement","Strong Agreement","Slight Agreement"
"107","A2967HKT6Y57AG:3U5NZHP4LS8PDRV3ESMTTZ07BMPHPQ","1",6,11,1,"50","<p style=""font-size:100px""><b>p</b></p><p style=""position: absolute; top: 30px; right: 30px; text-align:right; font-size:50px"""">N = 1</p>","p",0,69,73,0,"agree",20,15,16,19,16,"55","FEMALE","NOTHING","Moderate Disagreement","Strong Agreement","Slight Disagreement","Moderate Agreement","Strong Agreement","Very Strong Agreement","Strong Agreement","Moderate Agreement","Strong Agreement","Moderate Agreement","Strong Agreement","Moderate Agreement","Strong Agreement","Moderate Agreement","Strong Agreement","Moderate Agreement","Strong Agreement","Slight Agreement"
"108","A2967HKT6Y57AG:3U5NZHP4LS8PDRV3ESMTTZ07BMPHPQ","1",6,12,1,"50","<p style=""font-size:100px""><b>v</b></p><p style=""position: absolute; top: 30px; right: 30px; text-align:right; font-size:50px"""">N = 1</p>","v",0,69,291,0,"agree",20,15,16,19,16,"55","FEMALE","NOTHING","Moderate Disagreement","Strong Agreement","Slight Disagreement","Moderate Agreement","Strong Agreement","Very Strong Agreement","Strong Agreement","Moderate Agreement","Strong Agreement","Moderate Agreement","Strong Agreement","Moderate Agreement","Strong Agreement","Moderate Agreement","Strong Agreement","Moderate Agreement","Strong Agreement","Slight Agreement"
"109","A2967HKT6Y57AG:3U5NZHP4LS8PDRV3ESMTTZ07BMPHPQ","2",7,1,2,"5","<p style=""font-size:100px""><b>V</b></p><p style=""position: absolute; top: 30px; right: 30px; text-align:right; font-size:50px"""">N = 2</p>","V",0,73,405,1,"agree",15,20,17,15,19,"55","FEMALE","NOTHING","Moderate Disagreement","Strong Agreement","Slight Disagreement","Moderate Agreement","Strong Agreement","Very Strong Agreement","Strong Agreement","Moderate Agreement","Strong Agreement","Moderate Agreement","Strong Agreement","Moderate Agreement","Strong Agreement","Moderate Agreement","Strong Agreement","Moderate Agreement","Strong Agreement","Slight Agreement"
"110","A2967HKT6Y57AG:3U5NZHP4LS8PDRV3ESMTTZ07BMPHPQ","2",7,2,2,"5","<p style=""font-size:100px""><b>t</b></p><p style=""position: absolute; top: 30px; right: 30px; text-align:right; font-size:50px"""">N = 2</p>","t",0,73,87,1,"agree",15,20,17,15,19,"55","FEMALE","NOTHING","Moderate Disagreement","Strong Agreement","Slight Disagreement","Moderate Agreement","Strong Agreement","Very Strong Agreement","Strong Agreement","Moderate Agreement","Strong Agreement","Moderate Agreement","Strong Agreement","Moderate Agreement","Strong Agreement","Moderate Agreement","Strong Agreement","Moderate Agreement","Strong Agreement","Slight Agreement"
"111","A2967HKT6Y57AG:3U5NZHP4LS8PDRV3ESMTTZ07BMPHPQ","2",7,3,2,"5","<p style=""font-size:100px""><b>D</b></p><p style=""position: absolute; top: 30px; right: 30px; text-align:right; font-size:50px"""">N = 2</p>","D",0,73,685,1,"agree",15,20,17,15,19,"55","FEMALE","NOTHING","Moderate Disagreement","Strong Agreement","Slight Disagreement","Moderate Agreement","Strong Agreement","Very Strong Agreement","Strong Agreement","Moderate Agreement","Strong Agreement","Moderate Agreement","Strong Agreement","Moderate Agreement","Strong Agreement","Moderate Agreement","Strong Agreement","Moderate Agreement","Strong Agreement","Slight Agreement"
"112","A2967HKT6Y57AG:3U5NZHP4LS8PDRV3ESMTTZ07BMPHPQ","2",7,4,2,"5","<p style=""font-size:100px""><b>G</b></p><p style=""position: absolute; top: 30px; right: 30px; text-align:right; font-size:50px"""">N = 2</p>","G",0,NA,NA,0,"agree",15,20,17,15,19,"55","FEMALE","NOTHING","Moderate Disagreement","Strong Agreement","Slight Disagreement","Moderate Agreement","Strong Agreement","Very Strong Agreement","Strong Agreement","Moderate Agreement","Strong Agreement","Moderate Agreement","Strong Agreement","Moderate Agreement","Strong Agreement","Moderate Agreement","Strong Agreement","Moderate Agreement","Strong Agreement","Slight Agreement"
"113","A2967HKT6Y57AG:3U5NZHP4LS8PDRV3ESMTTZ07BMPHPQ","2",7,5,2,"5","<p style=""font-size:100px""><b>D</b></p><p style=""position: absolute; top: 30px; right: 30px; text-align:right; font-size:50px"""">N = 2</p>","D",0,NA,NA,0,"agree",15,20,17,15,19,"55","FEMALE","NOTHING","Moderate Disagreement","Strong Agreement","Slight Disagreement","Moderate Agreement","Strong Agreement","Very Strong Agreement","Strong Agreement","Moderate Agreement","Strong Agreement","Moderate Agreement","Strong Agreement","Moderate Agreement","Strong Agreement","Moderate Agreement","Strong Agreement","Moderate Agreement","Strong Agreement","Slight Agreement"
"114","A2967HKT6Y57AG:3U5NZHP4LS8PDRV3ESMTTZ07BMPHPQ","2",7,6,2,"5","<p style=""font-size:100px""><b>p</b></p><p style=""position: absolute; top: 30px; right: 30px; text-align:right; font-size:50px"""">N = 2</p>","p",0,NA,NA,0,"agree",15,20,17,15,19,"55","FEMALE","NOTHING","Moderate Disagreement","Strong Agreement","Slight Disagreement","Moderate Agreement","Strong Agreement","Very Strong Agreement","Strong Agreement","Moderate Agreement","Strong Agreement","Moderate Agreement","Strong Agreement","Moderate Agreement","Strong Agreement","Moderate Agreement","Strong Agreement","Moderate Agreement","Strong Agreement","Slight Agreement"
"115","A2967HKT6Y57AG:3U5NZHP4LS8PDRV3ESMTTZ07BMPHPQ","2",7,7,2,"5","<p style=""font-size:100px""><b>D</b></p><p style=""position: absolute; top: 30px; right: 30px; text-align:right; font-size:50px"""">N = 2</p>","D",0,NA,NA,0,"agree",15,20,17,15,19,"55","FEMALE","NOTHING","Moderate Disagreement","Strong Agreement","Slight Disagreement","Moderate Agreement","Strong Agreement","Very Strong Agreement","Strong Agreement","Moderate Agreement","Strong Agreement","Moderate Agreement","Strong Agreement","Moderate Agreement","Strong Agreement","Moderate Agreement","Strong Agreement","Moderate Agreement","Strong Agreement","Slight Agreement"
"116","A2967HKT6Y57AG:3U5NZHP4LS8PDRV3ESMTTZ07BMPHPQ","2",7,8,2,"5","<p style=""font-size:100px""><b>t</b></p><p style=""position: absolute; top: 30px; right: 30px; text-align:right; font-size:50px"""">N = 2</p>","t",0,73,266,1,"agree",15,20,17,15,19,"55","FEMALE","NOTHING","Moderate Disagreement","Strong Agreement","Slight Disagreement","Moderate Agreement","Strong Agreement","Very Strong Agreement","Strong Agreement","Moderate Agreement","Strong Agreement","Moderate Agreement","Strong Agreement","Moderate Agreement","Strong Agreement","Moderate Agreement","Strong Agreement","Moderate Agreement","Strong Agreement","Slight Agreement"
"117","A2967HKT6Y57AG:3U5NZHP4LS8PDRV3ESMTTZ07BMPHPQ","2",7,9,2,"5","<p style=""font-size:100px""><b>D</b></p><p style=""position: absolute; top: 30px; right: 30px; text-align:right; font-size:50px"""">N = 2</p>","D",0,73,573,1,"agree",15,20,17,15,19,"55","FEMALE","NOTHING","Moderate Disagreement","Strong Agreement","Slight Disagreement","Moderate Agreement","Strong Agreement","Very Strong Agreement","Strong Agreement","Moderate Agreement","Strong Agreement","Moderate Agreement","Strong Agreement","Moderate Agreement","Strong Agreement","Moderate Agreement","Strong Agreement","Moderate Agreement","Strong Agreement","Slight Agreement"
"118","A2967HKT6Y57AG:3U5NZHP4LS8PDRV3ESMTTZ07BMPHPQ","2",7,10,2,"5","<p style=""font-size:100px""><b>v</b></p><p style=""position: absolute; top: 30px; right: 30px; text-align:right; font-size:50px"""">N = 2</p>","v",0,69,135,0,"agree",15,20,17,15,19,"55","FEMALE","NOTHING","Moderate Disagreement","Strong Agreement","Slight Disagreement","Moderate Agreement","Strong Agreement","Very Strong Agreement","Strong Agreement","Moderate Agreement","Strong Agreement","Moderate Agreement","Strong Agreement","Moderate Agreement","Strong Agreement","Moderate Agreement","Strong Agreement","Moderate Agreement","Strong Agreement","Slight Agreement"
"119","A2967HKT6Y57AG:3U5NZHP4LS8PDRV3ESMTTZ07BMPHPQ","2",7,11,2,"5","<p style=""font-size:100px""><b>t</b></p><p style=""position: absolute; top: 30px; right: 30px; text-align:right; font-size:50px"""">N = 2</p>","t",0,NA,NA,0,"agree",15,20,17,15,19,"55","FEMALE","NOTHING","Moderate Disagreement","Strong Agreement","Slight Disagreement","Moderate Agreement","Strong Agreement","Very Strong Agreement","Strong Agreement","Moderate Agreement","Strong Agreement","Moderate Agreement","Strong Agreement","Moderate Agreement","Strong Agreement","Moderate Agreement","Strong Agreement","Moderate Agreement","Strong Agreement","Slight Agreement"
"120","A2967HKT6Y57AG:3U5NZHP4LS8PDRV3ESMTTZ07BMPHPQ","2",7,12,2,"5","<p style=""font-size:100px""><b>v</b></p><p style=""position: absolute; top: 30px; right: 30px; text-align:right; font-size:50px"""">N = 2</p>","v",0,NA,NA,0,"agree",15,20,17,15,19,"55","FEMALE","NOTHING","Moderate Disagreement","Strong Agreement","Slight Disagreement","Moderate Agreement","Strong Agreement","Very Strong Agreement","Strong Agreement","Moderate Agreement","Strong Agreement","Moderate Agreement","Strong Agreement","Moderate Agreement","Strong Agreement","Moderate Agreement","Strong Agreement","Moderate Agreement","Strong Agreement","Slight Agreement"
"121","A2967HKT6Y57AG:3U5NZHP4LS8PDRV3ESMTTZ07BMPHPQ","2",8,1,3,"5","<p style=""font-size:100px""><b>g</b></p><p style=""position: absolute; top: 30px; right: 30px; text-align:right; font-size:50px"""">N = 3</p>","g",0,NA,NA,0,"agree",18,16,17,20,16,"55","FEMALE","NOTHING","Moderate Disagreement","Strong Agreement","Slight Disagreement","Moderate Agreement","Strong Agreement","Very Strong Agreement","Strong Agreement","Moderate Agreement","Strong Agreement","Moderate Agreement","Strong Agreement","Moderate Agreement","Strong Agreement","Moderate Agreement","Strong Agreement","Moderate Agreement","Strong Agreement","Slight Agreement"
"122","A2967HKT6Y57AG:3U5NZHP4LS8PDRV3ESMTTZ07BMPHPQ","2",8,2,3,"5","<p style=""font-size:100px""><b>G</b></p><p style=""position: absolute; top: 30px; right: 30px; text-align:right; font-size:50px"""">N = 3</p>","G",0,NA,NA,0,"agree",18,16,17,20,16,"55","FEMALE","NOTHING","Moderate Disagreement","Strong Agreement","Slight Disagreement","Moderate Agreement","Strong Agreement","Very Strong Agreement","Strong Agreement","Moderate Agreement","Strong Agreement","Moderate Agreement","Strong Agreement","Moderate Agreement","Strong Agreement","Moderate Agreement","Strong Agreement","Moderate Agreement","Strong Agreement","Slight Agreement"
"123","A2967HKT6Y57AG:3U5NZHP4LS8PDRV3ESMTTZ07BMPHPQ","2",8,3,3,"5","<p style=""font-size:100px""><b>b</b></p><p style=""position: absolute; top: 30px; right: 30px; text-align:right; font-size:50px"""">N = 3</p>","b",0,NA,NA,0,"agree",18,16,17,20,16,"55","FEMALE","NOTHING","Moderate Disagreement","Strong Agreement","Slight Disagreement","Moderate Agreement","Strong Agreement","Very Strong Agreement","Strong Agreement","Moderate Agreement","Strong Agreement","Moderate Agreement","Strong Agreement","Moderate Agreement","Strong Agreement","Moderate Agreement","Strong Agreement","Moderate Agreement","Strong Agreement","Slight Agreement"
"124","A2967HKT6Y57AG:3U5NZHP4LS8PDRV3ESMTTZ07BMPHPQ","2",8,4,3,"5","<p style=""font-size:100px""><b>g</b></p><p style=""position: absolute; top: 30px; right: 30px; text-align:right; font-size:50px"""">N = 3</p>","g",0,73,814,1,"agree",18,16,17,20,16,"55","FEMALE","NOTHING","Moderate Disagreement","Strong Agreement","Slight Disagreement","Moderate Agreement","Strong Agreement","Very Strong Agreement","Strong Agreement","Moderate Agreement","Strong Agreement","Moderate Agreement","Strong Agreement","Moderate Agreement","Strong Agreement","Moderate Agreement","Strong Agreement","Moderate Agreement","Strong Agreement","Slight Agreement"
"125","A2967HKT6Y57AG:3U5NZHP4LS8PDRV3ESMTTZ07BMPHPQ","2",8,5,3,"5","<p style=""font-size:100px""><b>P</b></p><p style=""position: absolute; top: 30px; right: 30px; text-align:right; font-size:50px"""">N = 3</p>","P",0,69,327,0,"agree",18,16,17,20,16,"55","FEMALE","NOTHING","Moderate Disagreement","Strong Agreement","Slight Disagreement","Moderate Agreement","Strong Agreement","Very Strong Agreement","Strong Agreement","Moderate Agreement","Strong Agreement","Moderate Agreement","Strong Agreement","Moderate Agreement","Strong Agreement","Moderate Agreement","Strong Agreement","Moderate Agreement","Strong Agreement","Slight Agreement"
"126","A2967HKT6Y57AG:3U5NZHP4LS8PDRV3ESMTTZ07BMPHPQ","2",8,6,3,"5","<p style=""font-size:100px""><b>g</b></p><p style=""position: absolute; top: 30px; right: 30px; text-align:right; font-size:50px"""">N = 3</p>","g",0,69,438,0,"agree",18,16,17,20,16,"55","FEMALE","NOTHING","Moderate Disagreement","Strong Agreement","Slight Disagreement","Moderate Agreement","Strong Agreement","Very Strong Agreement","Strong Agreement","Moderate Agreement","Strong Agreement","Moderate Agreement","Strong Agreement","Moderate Agreement","Strong Agreement","Moderate Agreement","Strong Agreement","Moderate Agreement","Strong Agreement","Slight Agreement"
"127","A2967HKT6Y57AG:3U5NZHP4LS8PDRV3ESMTTZ07BMPHPQ","2",8,7,3,"5","<p style=""font-size:100px""><b>g</b></p><p style=""position: absolute; top: 30px; right: 30px; text-align:right; font-size:50px"""">N = 3</p>","g",0,69,902,0,"agree",18,16,17,20,16,"55","FEMALE","NOTHING","Moderate Disagreement","Strong Agreement","Slight Disagreement","Moderate Agreement","Strong Agreement","Very Strong Agreement","Strong Agreement","Moderate Agreement","Strong Agreement","Moderate Agreement","Strong Agreement","Moderate Agreement","Strong Agreement","Moderate Agreement","Strong Agreement","Moderate Agreement","Strong Agreement","Slight Agreement"
"128","A2967HKT6Y57AG:3U5NZHP4LS8PDRV3ESMTTZ07BMPHPQ","2",8,8,3,"5","<p style=""font-size:100px""><b>D</b></p><p style=""position: absolute; top: 30px; right: 30px; text-align:right; font-size:50px"""">N = 3</p>","D",0,NA,NA,0,"agree",18,16,17,20,16,"55","FEMALE","NOTHING","Moderate Disagreement","Strong Agreement","Slight Disagreement","Moderate Agreement","Strong Agreement","Very Strong Agreement","Strong Agreement","Moderate Agreement","Strong Agreement","Moderate Agreement","Strong Agreement","Moderate Agreement","Strong Agreement","Moderate Agreement","Strong Agreement","Moderate Agreement","Strong Agreement","Slight Agreement"
"129","A2967HKT6Y57AG:3U5NZHP4LS8PDRV3ESMTTZ07BMPHPQ","2",8,9,3,"5","<p style=""font-size:100px""><b>g</b></p><p style=""position: absolute; top: 30px; right: 30px; text-align:right; font-size:50px"""">N = 3</p>","g",0,73,411,1,"agree",18,16,17,20,16,"55","FEMALE","NOTHING","Moderate Disagreement","Strong Agreement","Slight Disagreement","Moderate Agreement","Strong Agreement","Very Strong Agreement","Strong Agreement","Moderate Agreement","Strong Agreement","Moderate Agreement","Strong Agreement","Moderate Agreement","Strong Agreement","Moderate Agreement","Strong Agreement","Moderate Agreement","Strong Agreement","Slight Agreement"
"130","A2967HKT6Y57AG:3U5NZHP4LS8PDRV3ESMTTZ07BMPHPQ","2",8,10,3,"5","<p style=""font-size:100px""><b>g</b></p><p style=""position: absolute; top: 30px; right: 30px; text-align:right; font-size:50px"""">N = 3</p>","g",0,69,19,0,"agree",18,16,17,20,16,"55","FEMALE","NOTHING","Moderate Disagreement","Strong Agreement","Slight Disagreement","Moderate Agreement","Strong Agreement","Very Strong Agreement","Strong Agreement","Moderate Agreement","Strong Agreement","Moderate Agreement","Strong Agreement","Moderate Agreement","Strong Agreement","Moderate Agreement","Strong Agreement","Moderate Agreement","Strong Agreement","Slight Agreement"
"131","A2967HKT6Y57AG:3U5NZHP4LS8PDRV3ESMTTZ07BMPHPQ","2",8,11,3,"5","<p style=""font-size:100px""><b>b</b></p><p style=""position: absolute; top: 30px; right: 30px; text-align:right; font-size:50px"""">N = 3</p>","b",0,NA,NA,0,"agree",18,16,17,20,16,"55","FEMALE","NOTHING","Moderate Disagreement","Strong Agreement","Slight Disagreement","Moderate Agreement","Strong Agreement","Very Strong Agreement","Strong Agreement","Moderate Agreement","Strong Agreement","Moderate Agreement","Strong Agreement","Moderate Agreement","Strong Agreement","Moderate Agreement","Strong Agreement","Moderate Agreement","Strong Agreement","Slight Agreement"
"132","A2967HKT6Y57AG:3U5NZHP4LS8PDRV3ESMTTZ07BMPHPQ","2",8,12,3,"5","<p style=""font-size:100px""><b>d</b></p><p style=""position: absolute; top: 30px; right: 30px; text-align:right; font-size:50px"""">N = 3</p>","d",0,NA,NA,0,"agree",18,16,17,20,16,"55","FEMALE","NOTHING","Moderate Disagreement","Strong Agreement","Slight Disagreement","Moderate Agreement","Strong Agreement","Very Strong Agreement","Strong Agreement","Moderate Agreement","Strong Agreement","Moderate Agreement","Strong Agreement","Moderate Agreement","Strong Agreement","Moderate Agreement","Strong Agreement","Moderate Agreement","Strong Agreement","Slight Agreement"
"133","A2967HKT6Y57AG:3U5NZHP4LS8PDRV3ESMTTZ07BMPHPQ","2",9,1,3,"5","<p style=""font-size:100px""><b>P</b></p><p style=""position: absolute; top: 30px; right: 30px; text-align:right; font-size:50px"""">N = 3</p>","P",0,NA,NA,0,"agree",17,17,17,19,14,"55","FEMALE","NOTHING","Moderate Disagreement","Strong Agreement","Slight Disagreement","Moderate Agreement","Strong Agreement","Very Strong Agreement","Strong Agreement","Moderate Agreement","Strong Agreement","Moderate Agreement","Strong Agreement","Moderate Agreement","Strong Agreement","Moderate Agreement","Strong Agreement","Moderate Agreement","Strong Agreement","Slight Agreement"
"134","A2967HKT6Y57AG:3U5NZHP4LS8PDRV3ESMTTZ07BMPHPQ","2",9,2,3,"5","<p style=""font-size:100px""><b>g</b></p><p style=""position: absolute; top: 30px; right: 30px; text-align:right; font-size:50px"""">N = 3</p>","g",0,NA,NA,0,"agree",17,17,17,19,14,"55","FEMALE","NOTHING","Moderate Disagreement","Strong Agreement","Slight Disagreement","Moderate Agreement","Strong Agreement","Very Strong Agreement","Strong Agreement","Moderate Agreement","Strong Agreement","Moderate Agreement","Strong Agreement","Moderate Agreement","Strong Agreement","Moderate Agreement","Strong Agreement","Moderate Agreement","Strong Agreement","Slight Agreement"
"135","A2967HKT6Y57AG:3U5NZHP4LS8PDRV3ESMTTZ07BMPHPQ","2",9,3,3,"5","<p style=""font-size:100px""><b>V</b></p><p style=""position: absolute; top: 30px; right: 30px; text-align:right; font-size:50px"""">N = 3</p>","V",0,NA,NA,0,"agree",17,17,17,19,14,"55","FEMALE","NOTHING","Moderate Disagreement","Strong Agreement","Slight Disagreement","Moderate Agreement","Strong Agreement","Very Strong Agreement","Strong Agreement","Moderate Agreement","Strong Agreement","Moderate Agreement","Strong Agreement","Moderate Agreement","Strong Agreement","Moderate Agreement","Strong Agreement","Moderate Agreement","Strong Agreement","Slight Agreement"
"136","A2967HKT6Y57AG:3U5NZHP4LS8PDRV3ESMTTZ07BMPHPQ","2",9,4,3,"5","<p style=""font-size:100px""><b>v</b></p><p style=""position: absolute; top: 30px; right: 30px; text-align:right; font-size:50px"""">N = 3</p>","v",0,69,517,0,"agree",17,17,17,19,14,"55","FEMALE","NOTHING","Moderate Disagreement","Strong Agreement","Slight Disagreement","Moderate Agreement","Strong Agreement","Very Strong Agreement","Strong Agreement","Moderate Agreement","Strong Agreement","Moderate Agreement","Strong Agreement","Moderate Agreement","Strong Agreement","Moderate Agreement","Strong Agreement","Moderate Agreement","Strong Agreement","Slight Agreement"
"137","A2967HKT6Y57AG:3U5NZHP4LS8PDRV3ESMTTZ07BMPHPQ","2",9,5,3,"5","<p style=""font-size:100px""><b>V</b></p><p style=""position: absolute; top: 30px; right: 30px; text-align:right; font-size:50px"""">N = 3</p>","V",0,69,437,0,"agree",17,17,17,19,14,"55","FEMALE","NOTHING","Moderate Disagreement","Strong Agreement","Slight Disagreement","Moderate Agreement","Strong Agreement","Very Strong Agreement","Strong Agreement","Moderate Agreement","Strong Agreement","Moderate Agreement","Strong Agreement","Moderate Agreement","Strong Agreement","Moderate Agreement","Strong Agreement","Moderate Agreement","Strong Agreement","Slight Agreement"
"138","A2967HKT6Y57AG:3U5NZHP4LS8PDRV3ESMTTZ07BMPHPQ","2",9,6,3,"5","<p style=""font-size:100px""><b>V</b></p><p style=""position: absolute; top: 30px; right: 30px; text-align:right; font-size:50px"""">N = 3</p>","V",0,73,54,1,"agree",17,17,17,19,14,"55","FEMALE","NOTHING","Moderate Disagreement","Strong Agreement","Slight Disagreement","Moderate Agreement","Strong Agreement","Very Strong Agreement","Strong Agreement","Moderate Agreement","Strong Agreement","Moderate Agreement","Strong Agreement","Moderate Agreement","Strong Agreement","Moderate Agreement","Strong Agreement","Moderate Agreement","Strong Agreement","Slight Agreement"
"139","A2967HKT6Y57AG:3U5NZHP4LS8PDRV3ESMTTZ07BMPHPQ","2",9,7,3,"5","<p style=""font-size:100px""><b>v</b></p><p style=""position: absolute; top: 30px; right: 30px; text-align:right; font-size:50px"""">N = 3</p>","v",0,73,470,1,"agree",17,17,17,19,14,"55","FEMALE","NOTHING","Moderate Disagreement","Strong Agreement","Slight Disagreement","Moderate Agreement","Strong Agreement","Very Strong Agreement","Strong Agreement","Moderate Agreement","Strong Agreement","Moderate Agreement","Strong Agreement","Moderate Agreement","Strong Agreement","Moderate Agreement","Strong Agreement","Moderate Agreement","Strong Agreement","Slight Agreement"
"140","A2967HKT6Y57AG:3U5NZHP4LS8PDRV3ESMTTZ07BMPHPQ","2",9,8,3,"5","<p style=""font-size:100px""><b>D</b></p><p style=""position: absolute; top: 30px; right: 30px; text-align:right; font-size:50px"""">N = 3</p>","D",0,69,159,0,"agree",17,17,17,19,14,"55","FEMALE","NOTHING","Moderate Disagreement","Strong Agreement","Slight Disagreement","Moderate Agreement","Strong Agreement","Very Strong Agreement","Strong Agreement","Moderate Agreement","Strong Agreement","Moderate Agreement","Strong Agreement","Moderate Agreement","Strong Agreement","Moderate Agreement","Strong Agreement","Moderate Agreement","Strong Agreement","Slight Agreement"
"141","A2967HKT6Y57AG:3U5NZHP4LS8PDRV3ESMTTZ07BMPHPQ","2",9,9,3,"5","<p style=""font-size:100px""><b>b</b></p><p style=""position: absolute; top: 30px; right: 30px; text-align:right; font-size:50px"""">N = 3</p>","b",0,NA,NA,0,"agree",17,17,17,19,14,"55","FEMALE","NOTHING","Moderate Disagreement","Strong Agreement","Slight Disagreement","Moderate Agreement","Strong Agreement","Very Strong Agreement","Strong Agreement","Moderate Agreement","Strong Agreement","Moderate Agreement","Strong Agreement","Moderate Agreement","Strong Agreement","Moderate Agreement","Strong Agreement","Moderate Agreement","Strong Agreement","Slight Agreement"
"142","A2967HKT6Y57AG:3U5NZHP4LS8PDRV3ESMTTZ07BMPHPQ","2",9,10,3,"5","<p style=""font-size:100px""><b>v</b></p><p style=""position: absolute; top: 30px; right: 30px; text-align:right; font-size:50px"""">N = 3</p>","v",0,73,579,1,"agree",17,17,17,19,14,"55","FEMALE","NOTHING","Moderate Disagreement","Strong Agreement","Slight Disagreement","Moderate Agreement","Strong Agreement","Very Strong Agreement","Strong Agreement","Moderate Agreement","Strong Agreement","Moderate Agreement","Strong Agreement","Moderate Agreement","Strong Agreement","Moderate Agreement","Strong Agreement","Moderate Agreement","Strong Agreement","Slight Agreement"
"143","A2967HKT6Y57AG:3U5NZHP4LS8PDRV3ESMTTZ07BMPHPQ","2",9,11,3,"5","<p style=""font-size:100px""><b>g</b></p><p style=""position: absolute; top: 30px; right: 30px; text-align:right; font-size:50px"""">N = 3</p>","g",0,69,29,0,"agree",17,17,17,19,14,"55","FEMALE","NOTHING","Moderate Disagreement","Strong Agreement","Slight Disagreement","Moderate Agreement","Strong Agreement","Very Strong Agreement","Strong Agreement","Moderate Agreement","Strong Agreement","Moderate Agreement","Strong Agreement","Moderate Agreement","Strong Agreement","Moderate Agreement","Strong Agreement","Moderate Agreement","Strong Agreement","Slight Agreement"
"144","A2967HKT6Y57AG:3U5NZHP4LS8PDRV3ESMTTZ07BMPHPQ","2",9,12,3,"5","<p style=""font-size:100px""><b>b</b></p><p style=""position: absolute; top: 30px; right: 30px; text-align:right; font-size:50px"""">N = 3</p>","b",0,NA,NA,0,"agree",17,17,17,19,14,"55","FEMALE","NOTHING","Moderate Disagreement","Strong Agreement","Slight Disagreement","Moderate Agreement","Strong Agreement","Very Strong Agreement","Strong Agreement","Moderate Agreement","Strong Agreement","Moderate Agreement","Strong Agreement","Moderate Agreement","Strong Agreement","Moderate Agreement","Strong Agreement","Moderate Agreement","Strong Agreement","Slight Agreement"
"145","A2967HKT6Y57AG:3U5NZHP4LS8PDRV3ESMTTZ07BMPHPQ","2",10,1,1,"50","<p style=""font-size:100px""><b>p</b></p><p style=""position: absolute; top: 30px; right: 30px; text-align:right; font-size:50px"""">N = 1</p>","p",0,73,34,1,"agree",16,19,16,17,19,"55","FEMALE","NOTHING","Moderate Disagreement","Strong Agreement","Slight Disagreement","Moderate Agreement","Strong Agreement","Very Strong Agreement","Strong Agreement","Moderate Agreement","Strong Agreement","Moderate Agreement","Strong Agreement","Moderate Agreement","Strong Agreement","Moderate Agreement","Strong Agreement","Moderate Agreement","Strong Agreement","Slight Agreement"
"146","A2967HKT6Y57AG:3U5NZHP4LS8PDRV3ESMTTZ07BMPHPQ","2",10,2,1,"50","<p style=""font-size:100px""><b>G</b></p><p style=""position: absolute; top: 30px; right: 30px; text-align:right; font-size:50px"""">N = 1</p>","G",0,73,454,1,"agree",16,19,16,17,19,"55","FEMALE","NOTHING","Moderate Disagreement","Strong Agreement","Slight Disagreement","Moderate Agreement","Strong Agreement","Very Strong Agreement","Strong Agreement","Moderate Agreement","Strong Agreement","Moderate Agreement","Strong Agreement","Moderate Agreement","Strong Agreement","Moderate Agreement","Strong Agreement","Moderate Agreement","Strong Agreement","Slight Agreement"
"147","A2967HKT6Y57AG:3U5NZHP4LS8PDRV3ESMTTZ07BMPHPQ","2",10,3,1,"50","<p style=""font-size:100px""><b>G</b></p><p style=""position: absolute; top: 30px; right: 30px; text-align:right; font-size:50px"""">N = 1</p>","G",0,69,590,0,"agree",16,19,16,17,19,"55","FEMALE","NOTHING","Moderate Disagreement","Strong Agreement","Slight Disagreement","Moderate Agreement","Strong Agreement","Very Strong Agreement","Strong Agreement","Moderate Agreement","Strong Agreement","Moderate Agreement","Strong Agreement","Moderate Agreement","Strong Agreement","Moderate Agreement","Strong Agreement","Moderate Agreement","Strong Agreement","Slight Agreement"
"148","A2967HKT6Y57AG:3U5NZHP4LS8PDRV3ESMTTZ07BMPHPQ","2",10,4,1,"50","<p style=""font-size:100px""><b>P</b></p><p style=""position: absolute; top: 30px; right: 30px; text-align:right; font-size:50px"""">N = 1</p>","P",0,NA,NA,0,"agree",16,19,16,17,19,"55","FEMALE","NOTHING","Moderate Disagreement","Strong Agreement","Slight Disagreement","Moderate Agreement","Strong Agreement","Very Strong Agreement","Strong Agreement","Moderate Agreement","Strong Agreement","Moderate Agreement","Strong Agreement","Moderate Agreement","Strong Agreement","Moderate Agreement","Strong Agreement","Moderate Agreement","Strong Agreement","Slight Agreement"
"149","A2967HKT6Y57AG:3U5NZHP4LS8PDRV3ESMTTZ07BMPHPQ","2",10,5,1,"50","<p style=""font-size:100px""><b>V</b></p><p style=""position: absolute; top: 30px; right: 30px; text-align:right; font-size:50px"""">N = 1</p>","V",0,NA,NA,0,"agree",16,19,16,17,19,"55","FEMALE","NOTHING","Moderate Disagreement","Strong Agreement","Slight Disagreement","Moderate Agreement","Strong Agreement","Very Strong Agreement","Strong Agreement","Moderate Agreement","Strong Agreement","Moderate Agreement","Strong Agreement","Moderate Agreement","Strong Agreement","Moderate Agreement","Strong Agreement","Moderate Agreement","Strong Agreement","Slight Agreement"
"150","A2967HKT6Y57AG:3U5NZHP4LS8PDRV3ESMTTZ07BMPHPQ","2",10,6,1,"50","<p style=""font-size:100px""><b>B</b></p><p style=""position: absolute; top: 30px; right: 30px; text-align:right; font-size:50px"""">N = 1</p>","B",0,NA,NA,0,"agree",16,19,16,17,19,"55","FEMALE","NOTHING","Moderate Disagreement","Strong Agreement","Slight Disagreement","Moderate Agreement","Strong Agreement","Very Strong Agreement","Strong Agreement","Moderate Agreement","Strong Agreement","Moderate Agreement","Strong Agreement","Moderate Agreement","Strong Agreement","Moderate Agreement","Strong Agreement","Moderate Agreement","Strong Agreement","Slight Agreement"
"151","A2967HKT6Y57AG:3U5NZHP4LS8PDRV3ESMTTZ07BMPHPQ","2",10,7,1,"50","<p style=""font-size:100px""><b>G</b></p><p style=""position: absolute; top: 30px; right: 30px; text-align:right; font-size:50px"""">N = 1</p>","G",0,NA,NA,0,"agree",16,19,16,17,19,"55","FEMALE","NOTHING","Moderate Disagreement","Strong Agreement","Slight Disagreement","Moderate Agreement","Strong Agreement","Very Strong Agreement","Strong Agreement","Moderate Agreement","Strong Agreement","Moderate Agreement","Strong Agreement","Moderate Agreement","Strong Agreement","Moderate Agreement","Strong Agreement","Moderate Agreement","Strong Agreement","Slight Agreement"
"152","A2967HKT6Y57AG:3U5NZHP4LS8PDRV3ESMTTZ07BMPHPQ","2",10,8,1,"50","<p style=""font-size:100px""><b>G</b></p><p style=""position: absolute; top: 30px; right: 30px; text-align:right; font-size:50px"""">N = 1</p>","G",0,NA,NA,0,"agree",16,19,16,17,19,"55","FEMALE","NOTHING","Moderate Disagreement","Strong Agreement","Slight Disagreement","Moderate Agreement","Strong Agreement","Very Strong Agreement","Strong Agreement","Moderate Agreement","Strong Agreement","Moderate Agreement","Strong Agreement","Moderate Agreement","Strong Agreement","Moderate Agreement","Strong Agreement","Moderate Agreement","Strong Agreement","Slight Agreement"
"153","A2967HKT6Y57AG:3U5NZHP4LS8PDRV3ESMTTZ07BMPHPQ","2",10,9,1,"50","<p style=""font-size:100px""><b>B</b></p><p style=""position: absolute; top: 30px; right: 30px; text-align:right; font-size:50px"""">N = 1</p>","B",0,NA,NA,0,"agree",16,19,16,17,19,"55","FEMALE","NOTHING","Moderate Disagreement","Strong Agreement","Slight Disagreement","Moderate Agreement","Strong Agreement","Very Strong Agreement","Strong Agreement","Moderate Agreement","Strong Agreement","Moderate Agreement","Strong Agreement","Moderate Agreement","Strong Agreement","Moderate Agreement","Strong Agreement","Moderate Agreement","Strong Agreement","Slight Agreement"
"154","A2967HKT6Y57AG:3U5NZHP4LS8PDRV3ESMTTZ07BMPHPQ","2",10,10,1,"50","<p style=""font-size:100px""><b>g</b></p><p style=""position: absolute; top: 30px; right: 30px; text-align:right; font-size:50px"""">N = 1</p>","g",0,NA,NA,0,"agree",16,19,16,17,19,"55","FEMALE","NOTHING","Moderate Disagreement","Strong Agreement","Slight Disagreement","Moderate Agreement","Strong Agreement","Very Strong Agreement","Strong Agreement","Moderate Agreement","Strong Agreement","Moderate Agreement","Strong Agreement","Moderate Agreement","Strong Agreement","Moderate Agreement","Strong Agreement","Moderate Agreement","Strong Agreement","Slight Agreement"
