"","subject","run","block","trial","N","reward","stimulus","cue","isTarget","key_press","rt","acc","debrief","performance","frustration","demand","temporal","effort","age","gender","comments","nfc1","nfc2","nfc3","nfc4","nfc5","nfc6","nfc7","nfc8","nfc9","nfc10","nfc11","nfc12","nfc13","nfc14","nfc15","nfc16","nfc17","nfc18"
"1","AC25X0FNY5XIC:37M28K1J0RJEHTKRD97HFHRRPSFAJU","practice",1,1,1,"NA","<p style=""font-size:100px""><b>T</b></p><p style=""position: absolute; top: 30px; right: 30px; text-align:right; font-size:50px"""">N = 1</p>","T",0,69,391934.700000048,0,"agree",17,16,18,21,19,"25","male","good","Slight Agreement","Slight Disagreement","Slight Disagreement","Slight Disagreement","Slight Agreement","Moderate Agreement","Slight Agreement","Moderate Disagreement","Moderate Disagreement","Moderate Disagreement","Strong Disagreement","Moderate Disagreement","Slight Agreement","Slight Agreement","Slight Agreement","Strong Disagreement","Strong Agreement","Strong Agreement"
"2","AC25X0FNY5XIC:37M28K1J0RJEHTKRD97HFHRRPSFAJU","practice",1,2,1,"NA","<p style=""font-size:100px""><b>b</b></p><p style=""position: absolute; top: 30px; right: 30px; text-align:right; font-size:50px"""">N = 1</p>","b",0,69,3702.10000002384,0,"agree",17,16,18,21,19,"25","male","good","Slight Agreement","Slight Disagreement","Slight Disagreement","Slight Disagreement","Slight Agreement","Moderate Agreement","Slight Agreement","Moderate Disagreement","Moderate Disagreement","Moderate Disagreement","Strong Disagreement","Moderate Disagreement","Slight Agreement","Slight Agreement","Slight Agreement","Strong Disagreement","Strong Agreement","Strong Agreement"
"3","AC25X0FNY5XIC:37M28K1J0RJEHTKRD97HFHRRPSFAJU","practice",1,3,1,"NA","<p style=""font-size:100px""><b>b</b></p><p style=""position: absolute; top: 30px; right: 30px; text-align:right; font-size:50px"""">N = 1</p>","b",1,69,3647.19999998808,1,"agree",17,16,18,21,19,"25","male","good","Slight Agreement","Slight Disagreement","Slight Disagreement","Slight Disagreement","Slight Agreement","Moderate Agreement","Slight Agreement","Moderate Disagreement","Moderate Disagreement","Moderate Disagreement","Strong Disagreement","Moderate Disagreement","Slight Agreement","Slight Agreement","Slight Agreement","Strong Disagreement","Strong Agreement","Strong Agreement"
"4","AC25X0FNY5XIC:37M28K1J0RJEHTKRD97HFHRRPSFAJU","practice",1,4,1,"NA","<p style=""font-size:100px""><b>b</b></p><p style=""position: absolute; top: 30px; right: 30px; text-align:right; font-size:50px"""">N = 1</p>","b",1,69,3696.30000001192,1,"agree",17,16,18,21,19,"25","male","good","Slight Agreement","Slight Disagreement","Slight Disagreement","Slight Disagreement","Slight Agreement","Moderate Agreement","Slight Agreement","Moderate Disagreement","Moderate Disagreement","Moderate Disagreement","Strong Disagreement","Moderate Disagreement","Slight Agreement","Slight Agreement","Slight Agreement","Strong Disagreement","Strong Agreement","Strong Agreement"
"5","AC25X0FNY5XIC:37M28K1J0RJEHTKRD97HFHRRPSFAJU","practice",1,5,1,"NA","<p style=""font-size:100px""><b>b</b></p><p style=""position: absolute; top: 30px; right: 30px; text-align:right; font-size:50px"""">N = 1</p>","b",1,69,832.600000023842,1,"agree",17,16,18,21,19,"25","male","good","Slight Agreement","Slight Disagreement","Slight Disagreement","Slight Disagreement","Slight Agreement","Moderate Agreement","Slight Agreement","Moderate Disagreement","Moderate Disagreement","Moderate Disagreement","Strong Disagreement","Moderate Disagreement","Slight Agreement","Slight Agreement","Slight Agreement","Strong Disagreement","Strong Agreement","Strong Agreement"
"6","AC25X0FNY5XIC:37M28K1J0RJEHTKRD97HFHRRPSFAJU","practice",1,6,1,"NA","<p style=""font-size:100px""><b>b</b></p><p style=""position: absolute; top: 30px; right: 30px; text-align:right; font-size:50px"""">N = 1</p>","b",1,69,769.199999988079,1,"agree",17,16,18,21,19,"25","male","good","Slight Agreement","Slight Disagreement","Slight Disagreement","Slight Disagreement","Slight Agreement","Moderate Agreement","Slight Agreement","Moderate Disagreement","Moderate Disagreement","Moderate Disagreement","Strong Disagreement","Moderate Disagreement","Slight Agreement","Slight Agreement","Slight Agreement","Strong Disagreement","Strong Agreement","Strong Agreement"
"7","AC25X0FNY5XIC:37M28K1J0RJEHTKRD97HFHRRPSFAJU","practice",1,7,1,"NA","<p style=""font-size:100px""><b>G</b></p><p style=""position: absolute; top: 30px; right: 30px; text-align:right; font-size:50px"""">N = 1</p>","G",0,69,333.5,0,"agree",17,16,18,21,19,"25","male","good","Slight Agreement","Slight Disagreement","Slight Disagreement","Slight Disagreement","Slight Agreement","Moderate Agreement","Slight Agreement","Moderate Disagreement","Moderate Disagreement","Moderate Disagreement","Strong Disagreement","Moderate Disagreement","Slight Agreement","Slight Agreement","Slight Agreement","Strong Disagreement","Strong Agreement","Strong Agreement"
"8","AC25X0FNY5XIC:37M28K1J0RJEHTKRD97HFHRRPSFAJU","practice",1,8,1,"NA","<p style=""font-size:100px""><b>d</b></p><p style=""position: absolute; top: 30px; right: 30px; text-align:right; font-size:50px"""">N = 1</p>","d",0,69,1592.19999998808,0,"agree",17,16,18,21,19,"25","male","good","Slight Agreement","Slight Disagreement","Slight Disagreement","Slight Disagreement","Slight Agreement","Moderate Agreement","Slight Agreement","Moderate Disagreement","Moderate Disagreement","Moderate Disagreement","Strong Disagreement","Moderate Disagreement","Slight Agreement","Slight Agreement","Slight Agreement","Strong Disagreement","Strong Agreement","Strong Agreement"
"9","AC25X0FNY5XIC:37M28K1J0RJEHTKRD97HFHRRPSFAJU","practice",1,9,1,"NA","<p style=""font-size:100px""><b>v</b></p><p style=""position: absolute; top: 30px; right: 30px; text-align:right; font-size:50px"""">N = 1</p>","v",0,73,11032.8999999762,1,"agree",17,16,18,21,19,"25","male","good","Slight Agreement","Slight Disagreement","Slight Disagreement","Slight Disagreement","Slight Agreement","Moderate Agreement","Slight Agreement","Moderate Disagreement","Moderate Disagreement","Moderate Disagreement","Strong Disagreement","Moderate Disagreement","Slight Agreement","Slight Agreement","Slight Agreement","Strong Disagreement","Strong Agreement","Strong Agreement"
"10","AC25X0FNY5XIC:37M28K1J0RJEHTKRD97HFHRRPSFAJU","practice",1,10,1,"NA","<p style=""font-size:100px""><b>p</b></p><p style=""position: absolute; top: 30px; right: 30px; text-align:right; font-size:50px"""">N = 1</p>","p",0,69,8914.19999998808,0,"agree",17,16,18,21,19,"25","male","good","Slight Agreement","Slight Disagreement","Slight Disagreement","Slight Disagreement","Slight Agreement","Moderate Agreement","Slight Agreement","Moderate Disagreement","Moderate Disagreement","Moderate Disagreement","Strong Disagreement","Moderate Disagreement","Slight Agreement","Slight Agreement","Slight Agreement","Strong Disagreement","Strong Agreement","Strong Agreement"
"11","AC25X0FNY5XIC:37M28K1J0RJEHTKRD97HFHRRPSFAJU","practice",1,11,1,"NA","<p style=""font-size:100px""><b>b</b></p><p style=""position: absolute; top: 30px; right: 30px; text-align:right; font-size:50px"""">N = 1</p>","b",0,69,31671.1999999881,0,"agree",17,16,18,21,19,"25","male","good","Slight Agreement","Slight Disagreement","Slight Disagreement","Slight Disagreement","Slight Agreement","Moderate Agreement","Slight Agreement","Moderate Disagreement","Moderate Disagreement","Moderate Disagreement","Strong Disagreement","Moderate Disagreement","Slight Agreement","Slight Agreement","Slight Agreement","Strong Disagreement","Strong Agreement","Strong Agreement"
"12","AC25X0FNY5XIC:37M28K1J0RJEHTKRD97HFHRRPSFAJU","practice",1,12,1,"NA","<p style=""font-size:100px""><b>P</b></p><p style=""position: absolute; top: 30px; right: 30px; text-align:right; font-size:50px"""">N = 1</p>","P",0,69,9227.70000004768,0,"agree",17,16,18,21,19,"25","male","good","Slight Agreement","Slight Disagreement","Slight Disagreement","Slight Disagreement","Slight Agreement","Moderate Agreement","Slight Agreement","Moderate Disagreement","Moderate Disagreement","Moderate Disagreement","Strong Disagreement","Moderate Disagreement","Slight Agreement","Slight Agreement","Slight Agreement","Strong Disagreement","Strong Agreement","Strong Agreement"
"13","AC25X0FNY5XIC:37M28K1J0RJEHTKRD97HFHRRPSFAJU","practice",2,1,2,"NA","<p style=""font-size:100px""><b>b</b></p><p style=""position: absolute; top: 30px; right: 30px; text-align:right; font-size:50px"""">N = 2</p>","b",0,69,75109.1000000238,0,"agree",17,16,18,21,19,"25","male","good","Slight Agreement","Slight Disagreement","Slight Disagreement","Slight Disagreement","Slight Agreement","Moderate Agreement","Slight Agreement","Moderate Disagreement","Moderate Disagreement","Moderate Disagreement","Strong Disagreement","Moderate Disagreement","Slight Agreement","Slight Agreement","Slight Agreement","Strong Disagreement","Strong Agreement","Strong Agreement"
"14","AC25X0FNY5XIC:37M28K1J0RJEHTKRD97HFHRRPSFAJU","practice",2,2,2,"NA","<p style=""font-size:100px""><b>T</b></p><p style=""position: absolute; top: 30px; right: 30px; text-align:right; font-size:50px"""">N = 2</p>","T",0,73,7092.40000003576,1,"agree",17,16,18,21,19,"25","male","good","Slight Agreement","Slight Disagreement","Slight Disagreement","Slight Disagreement","Slight Agreement","Moderate Agreement","Slight Agreement","Moderate Disagreement","Moderate Disagreement","Moderate Disagreement","Strong Disagreement","Moderate Disagreement","Slight Agreement","Slight Agreement","Slight Agreement","Strong Disagreement","Strong Agreement","Strong Agreement"
"15","AC25X0FNY5XIC:37M28K1J0RJEHTKRD97HFHRRPSFAJU","practice",2,3,2,"NA","<p style=""font-size:100px""><b>b</b></p><p style=""position: absolute; top: 30px; right: 30px; text-align:right; font-size:50px"""">N = 2</p>","b",1,73,107.100000023842,0,"agree",17,16,18,21,19,"25","male","good","Slight Agreement","Slight Disagreement","Slight Disagreement","Slight Disagreement","Slight Agreement","Moderate Agreement","Slight Agreement","Moderate Disagreement","Moderate Disagreement","Moderate Disagreement","Strong Disagreement","Moderate Disagreement","Slight Agreement","Slight Agreement","Slight Agreement","Strong Disagreement","Strong Agreement","Strong Agreement"
"16","AC25X0FNY5XIC:37M28K1J0RJEHTKRD97HFHRRPSFAJU","practice",2,4,2,"NA","<p style=""font-size:100px""><b>T</b></p><p style=""position: absolute; top: 30px; right: 30px; text-align:right; font-size:50px"""">N = 2</p>","T",1,73,1117.60000002384,0,"agree",17,16,18,21,19,"25","male","good","Slight Agreement","Slight Disagreement","Slight Disagreement","Slight Disagreement","Slight Agreement","Moderate Agreement","Slight Agreement","Moderate Disagreement","Moderate Disagreement","Moderate Disagreement","Strong Disagreement","Moderate Disagreement","Slight Agreement","Slight Agreement","Slight Agreement","Strong Disagreement","Strong Agreement","Strong Agreement"
"17","AC25X0FNY5XIC:37M28K1J0RJEHTKRD97HFHRRPSFAJU","practice",2,5,2,"NA","<p style=""font-size:100px""><b>T</b></p><p style=""position: absolute; top: 30px; right: 30px; text-align:right; font-size:50px"""">N = 2</p>","T",0,69,575.599999964237,0,"agree",17,16,18,21,19,"25","male","good","Slight Agreement","Slight Disagreement","Slight Disagreement","Slight Disagreement","Slight Agreement","Moderate Agreement","Slight Agreement","Moderate Disagreement","Moderate Disagreement","Moderate Disagreement","Strong Disagreement","Moderate Disagreement","Slight Agreement","Slight Agreement","Slight Agreement","Strong Disagreement","Strong Agreement","Strong Agreement"
"18","AC25X0FNY5XIC:37M28K1J0RJEHTKRD97HFHRRPSFAJU","practice",2,6,2,"NA","<p style=""font-size:100px""><b>B</b></p><p style=""position: absolute; top: 30px; right: 30px; text-align:right; font-size:50px"""">N = 2</p>","B",0,69,854.399999976158,0,"agree",17,16,18,21,19,"25","male","good","Slight Agreement","Slight Disagreement","Slight Disagreement","Slight Disagreement","Slight Agreement","Moderate Agreement","Slight Agreement","Moderate Disagreement","Moderate Disagreement","Moderate Disagreement","Strong Disagreement","Moderate Disagreement","Slight Agreement","Slight Agreement","Slight Agreement","Strong Disagreement","Strong Agreement","Strong Agreement"
"19","AC25X0FNY5XIC:37M28K1J0RJEHTKRD97HFHRRPSFAJU","practice",2,7,2,"NA","<p style=""font-size:100px""><b>V</b></p><p style=""position: absolute; top: 30px; right: 30px; text-align:right; font-size:50px"""">N = 2</p>","V",0,69,2096.19999998808,0,"agree",17,16,18,21,19,"25","male","good","Slight Agreement","Slight Disagreement","Slight Disagreement","Slight Disagreement","Slight Agreement","Moderate Agreement","Slight Agreement","Moderate Disagreement","Moderate Disagreement","Moderate Disagreement","Strong Disagreement","Moderate Disagreement","Slight Agreement","Slight Agreement","Slight Agreement","Strong Disagreement","Strong Agreement","Strong Agreement"
"20","AC25X0FNY5XIC:37M28K1J0RJEHTKRD97HFHRRPSFAJU","practice",2,8,2,"NA","<p style=""font-size:100px""><b>B</b></p><p style=""position: absolute; top: 30px; right: 30px; text-align:right; font-size:50px"""">N = 2</p>","B",1,73,1373.30000001192,0,"agree",17,16,18,21,19,"25","male","good","Slight Agreement","Slight Disagreement","Slight Disagreement","Slight Disagreement","Slight Agreement","Moderate Agreement","Slight Agreement","Moderate Disagreement","Moderate Disagreement","Moderate Disagreement","Strong Disagreement","Moderate Disagreement","Slight Agreement","Slight Agreement","Slight Agreement","Strong Disagreement","Strong Agreement","Strong Agreement"
"21","AC25X0FNY5XIC:37M28K1J0RJEHTKRD97HFHRRPSFAJU","practice",2,9,2,"NA","<p style=""font-size:100px""><b>V</b></p><p style=""position: absolute; top: 30px; right: 30px; text-align:right; font-size:50px"""">N = 2</p>","V",1,69,40.8999999761581,1,"agree",17,16,18,21,19,"25","male","good","Slight Agreement","Slight Disagreement","Slight Disagreement","Slight Disagreement","Slight Agreement","Moderate Agreement","Slight Agreement","Moderate Disagreement","Moderate Disagreement","Moderate Disagreement","Strong Disagreement","Moderate Disagreement","Slight Agreement","Slight Agreement","Slight Agreement","Strong Disagreement","Strong Agreement","Strong Agreement"
"22","AC25X0FNY5XIC:37M28K1J0RJEHTKRD97HFHRRPSFAJU","practice",2,10,2,"NA","<p style=""font-size:100px""><b>V</b></p><p style=""position: absolute; top: 30px; right: 30px; text-align:right; font-size:50px"""">N = 2</p>","V",0,73,1226.59999996424,1,"agree",17,16,18,21,19,"25","male","good","Slight Agreement","Slight Disagreement","Slight Disagreement","Slight Disagreement","Slight Agreement","Moderate Agreement","Slight Agreement","Moderate Disagreement","Moderate Disagreement","Moderate Disagreement","Strong Disagreement","Moderate Disagreement","Slight Agreement","Slight Agreement","Slight Agreement","Strong Disagreement","Strong Agreement","Strong Agreement"
"23","AC25X0FNY5XIC:37M28K1J0RJEHTKRD97HFHRRPSFAJU","practice",2,11,2,"NA","<p style=""font-size:100px""><b>b</b></p><p style=""position: absolute; top: 30px; right: 30px; text-align:right; font-size:50px"""">N = 2</p>","b",0,69,1689.5,0,"agree",17,16,18,21,19,"25","male","good","Slight Agreement","Slight Disagreement","Slight Disagreement","Slight Disagreement","Slight Agreement","Moderate Agreement","Slight Agreement","Moderate Disagreement","Moderate Disagreement","Moderate Disagreement","Strong Disagreement","Moderate Disagreement","Slight Agreement","Slight Agreement","Slight Agreement","Strong Disagreement","Strong Agreement","Strong Agreement"
"24","AC25X0FNY5XIC:37M28K1J0RJEHTKRD97HFHRRPSFAJU","practice",2,12,2,"NA","<p style=""font-size:100px""><b>d</b></p><p style=""position: absolute; top: 30px; right: 30px; text-align:right; font-size:50px"""">N = 2</p>","d",0,73,104.800000011921,1,"agree",17,16,18,21,19,"25","male","good","Slight Agreement","Slight Disagreement","Slight Disagreement","Slight Disagreement","Slight Agreement","Moderate Agreement","Slight Agreement","Moderate Disagreement","Moderate Disagreement","Moderate Disagreement","Strong Disagreement","Moderate Disagreement","Slight Agreement","Slight Agreement","Slight Agreement","Strong Disagreement","Strong Agreement","Strong Agreement"
"25","AC25X0FNY5XIC:37M28K1J0RJEHTKRD97HFHRRPSFAJU","practice",3,1,3,"NA","<p style=""font-size:100px""><b>g</b></p><p style=""position: absolute; top: 30px; right: 30px; text-align:right; font-size:50px"""">N = 3</p>","g",0,73,530.199999988079,1,"agree",17,16,18,21,19,"25","male","good","Slight Agreement","Slight Disagreement","Slight Disagreement","Slight Disagreement","Slight Agreement","Moderate Agreement","Slight Agreement","Moderate Disagreement","Moderate Disagreement","Moderate Disagreement","Strong Disagreement","Moderate Disagreement","Slight Agreement","Slight Agreement","Slight Agreement","Strong Disagreement","Strong Agreement","Strong Agreement"
"26","AC25X0FNY5XIC:37M28K1J0RJEHTKRD97HFHRRPSFAJU","practice",3,2,3,"NA","<p style=""font-size:100px""><b>p</b></p><p style=""position: absolute; top: 30px; right: 30px; text-align:right; font-size:50px"""">N = 3</p>","p",0,73,471,1,"agree",17,16,18,21,19,"25","male","good","Slight Agreement","Slight Disagreement","Slight Disagreement","Slight Disagreement","Slight Agreement","Moderate Agreement","Slight Agreement","Moderate Disagreement","Moderate Disagreement","Moderate Disagreement","Strong Disagreement","Moderate Disagreement","Slight Agreement","Slight Agreement","Slight Agreement","Strong Disagreement","Strong Agreement","Strong Agreement"
"27","AC25X0FNY5XIC:37M28K1J0RJEHTKRD97HFHRRPSFAJU","practice",3,3,3,"NA","<p style=""font-size:100px""><b>V</b></p><p style=""position: absolute; top: 30px; right: 30px; text-align:right; font-size:50px"""">N = 3</p>","V",0,69,19567.2000000477,0,"agree",17,16,18,21,19,"25","male","good","Slight Agreement","Slight Disagreement","Slight Disagreement","Slight Disagreement","Slight Agreement","Moderate Agreement","Slight Agreement","Moderate Disagreement","Moderate Disagreement","Moderate Disagreement","Strong Disagreement","Moderate Disagreement","Slight Agreement","Slight Agreement","Slight Agreement","Strong Disagreement","Strong Agreement","Strong Agreement"
"28","AC25X0FNY5XIC:37M28K1J0RJEHTKRD97HFHRRPSFAJU","practice",3,4,3,"NA","<p style=""font-size:100px""><b>g</b></p><p style=""position: absolute; top: 30px; right: 30px; text-align:right; font-size:50px"""">N = 3</p>","g",1,69,778.100000023842,1,"agree",17,16,18,21,19,"25","male","good","Slight Agreement","Slight Disagreement","Slight Disagreement","Slight Disagreement","Slight Agreement","Moderate Agreement","Slight Agreement","Moderate Disagreement","Moderate Disagreement","Moderate Disagreement","Strong Disagreement","Moderate Disagreement","Slight Agreement","Slight Agreement","Slight Agreement","Strong Disagreement","Strong Agreement","Strong Agreement"
"29","AC25X0FNY5XIC:37M28K1J0RJEHTKRD97HFHRRPSFAJU","practice",3,5,3,"NA","<p style=""font-size:100px""><b>p</b></p><p style=""position: absolute; top: 30px; right: 30px; text-align:right; font-size:50px"""">N = 3</p>","p",1,73,650.300000011921,0,"agree",17,16,18,21,19,"25","male","good","Slight Agreement","Slight Disagreement","Slight Disagreement","Slight Disagreement","Slight Agreement","Moderate Agreement","Slight Agreement","Moderate Disagreement","Moderate Disagreement","Moderate Disagreement","Strong Disagreement","Moderate Disagreement","Slight Agreement","Slight Agreement","Slight Agreement","Strong Disagreement","Strong Agreement","Strong Agreement"
"30","AC25X0FNY5XIC:37M28K1J0RJEHTKRD97HFHRRPSFAJU","practice",3,6,3,"NA","<p style=""font-size:100px""><b>D</b></p><p style=""position: absolute; top: 30px; right: 30px; text-align:right; font-size:50px"""">N = 3</p>","D",0,73,1472.30000001192,1,"agree",17,16,18,21,19,"25","male","good","Slight Agreement","Slight Disagreement","Slight Disagreement","Slight Disagreement","Slight Agreement","Moderate Agreement","Slight Agreement","Moderate Disagreement","Moderate Disagreement","Moderate Disagreement","Strong Disagreement","Moderate Disagreement","Slight Agreement","Slight Agreement","Slight Agreement","Strong Disagreement","Strong Agreement","Strong Agreement"
"31","AC25X0FNY5XIC:37M28K1J0RJEHTKRD97HFHRRPSFAJU","practice",3,7,3,"NA","<p style=""font-size:100px""><b>b</b></p><p style=""position: absolute; top: 30px; right: 30px; text-align:right; font-size:50px"""">N = 3</p>","b",0,69,1171.89999997616,0,"agree",17,16,18,21,19,"25","male","good","Slight Agreement","Slight Disagreement","Slight Disagreement","Slight Disagreement","Slight Agreement","Moderate Agreement","Slight Agreement","Moderate Disagreement","Moderate Disagreement","Moderate Disagreement","Strong Disagreement","Moderate Disagreement","Slight Agreement","Slight Agreement","Slight Agreement","Strong Disagreement","Strong Agreement","Strong Agreement"
"32","AC25X0FNY5XIC:37M28K1J0RJEHTKRD97HFHRRPSFAJU","practice",3,8,3,"NA","<p style=""font-size:100px""><b>b</b></p><p style=""position: absolute; top: 30px; right: 30px; text-align:right; font-size:50px"""">N = 3</p>","b",0,73,1190,1,"agree",17,16,18,21,19,"25","male","good","Slight Agreement","Slight Disagreement","Slight Disagreement","Slight Disagreement","Slight Agreement","Moderate Agreement","Slight Agreement","Moderate Disagreement","Moderate Disagreement","Moderate Disagreement","Strong Disagreement","Moderate Disagreement","Slight Agreement","Slight Agreement","Slight Agreement","Strong Disagreement","Strong Agreement","Strong Agreement"
"33","AC25X0FNY5XIC:37M28K1J0RJEHTKRD97HFHRRPSFAJU","practice",3,9,3,"NA","<p style=""font-size:100px""><b>D</b></p><p style=""position: absolute; top: 30px; right: 30px; text-align:right; font-size:50px"""">N = 3</p>","D",1,73,987.399999976158,0,"agree",17,16,18,21,19,"25","male","good","Slight Agreement","Slight Disagreement","Slight Disagreement","Slight Disagreement","Slight Agreement","Moderate Agreement","Slight Agreement","Moderate Disagreement","Moderate Disagreement","Moderate Disagreement","Strong Disagreement","Moderate Disagreement","Slight Agreement","Slight Agreement","Slight Agreement","Strong Disagreement","Strong Agreement","Strong Agreement"
"34","AC25X0FNY5XIC:37M28K1J0RJEHTKRD97HFHRRPSFAJU","practice",3,10,3,"NA","<p style=""font-size:100px""><b>p</b></p><p style=""position: absolute; top: 30px; right: 30px; text-align:right; font-size:50px"""">N = 3</p>","p",0,73,2055.10000002384,1,"agree",17,16,18,21,19,"25","male","good","Slight Agreement","Slight Disagreement","Slight Disagreement","Slight Disagreement","Slight Agreement","Moderate Agreement","Slight Agreement","Moderate Disagreement","Moderate Disagreement","Moderate Disagreement","Strong Disagreement","Moderate Disagreement","Slight Agreement","Slight Agreement","Slight Agreement","Strong Disagreement","Strong Agreement","Strong Agreement"
"35","AC25X0FNY5XIC:37M28K1J0RJEHTKRD97HFHRRPSFAJU","practice",3,11,3,"NA","<p style=""font-size:100px""><b>b</b></p><p style=""position: absolute; top: 30px; right: 30px; text-align:right; font-size:50px"""">N = 3</p>","b",1,69,1046.09999996424,1,"agree",17,16,18,21,19,"25","male","good","Slight Agreement","Slight Disagreement","Slight Disagreement","Slight Disagreement","Slight Agreement","Moderate Agreement","Slight Agreement","Moderate Disagreement","Moderate Disagreement","Moderate Disagreement","Strong Disagreement","Moderate Disagreement","Slight Agreement","Slight Agreement","Slight Agreement","Strong Disagreement","Strong Agreement","Strong Agreement"
"36","AC25X0FNY5XIC:37M28K1J0RJEHTKRD97HFHRRPSFAJU","practice",3,12,3,"NA","<p style=""font-size:100px""><b>T</b></p><p style=""position: absolute; top: 30px; right: 30px; text-align:right; font-size:50px"""">N = 3</p>","T",0,73,1158,1,"agree",17,16,18,21,19,"25","male","good","Slight Agreement","Slight Disagreement","Slight Disagreement","Slight Disagreement","Slight Agreement","Moderate Agreement","Slight Agreement","Moderate Disagreement","Moderate Disagreement","Moderate Disagreement","Strong Disagreement","Moderate Disagreement","Slight Agreement","Slight Agreement","Slight Agreement","Strong Disagreement","Strong Agreement","Strong Agreement"
"37","AC25X0FNY5XIC:37M28K1J0RJEHTKRD97HFHRRPSFAJU","1",1,1,1,"5","<p style=""font-size:100px""><b>D</b></p><p style=""position: absolute; top: 30px; right: 30px; text-align:right; font-size:50px"""">N = 1</p>","D",0,NA,NA,0,"agree",17,16,18,21,19,"25","male","good","Slight Agreement","Slight Disagreement","Slight Disagreement","Slight Disagreement","Slight Agreement","Moderate Agreement","Slight Agreement","Moderate Disagreement","Moderate Disagreement","Moderate Disagreement","Strong Disagreement","Moderate Disagreement","Slight Agreement","Slight Agreement","Slight Agreement","Strong Disagreement","Strong Agreement","Strong Agreement"
"38","AC25X0FNY5XIC:37M28K1J0RJEHTKRD97HFHRRPSFAJU","1",1,2,1,"5","<p style=""font-size:100px""><b>b</b></p><p style=""position: absolute; top: 30px; right: 30px; text-align:right; font-size:50px"""">N = 1</p>","b",0,NA,NA,0,"agree",17,16,18,21,19,"25","male","good","Slight Agreement","Slight Disagreement","Slight Disagreement","Slight Disagreement","Slight Agreement","Moderate Agreement","Slight Agreement","Moderate Disagreement","Moderate Disagreement","Moderate Disagreement","Strong Disagreement","Moderate Disagreement","Slight Agreement","Slight Agreement","Slight Agreement","Strong Disagreement","Strong Agreement","Strong Agreement"
"39","AC25X0FNY5XIC:37M28K1J0RJEHTKRD97HFHRRPSFAJU","1",1,3,1,"5","<p style=""font-size:100px""><b>b</b></p><p style=""position: absolute; top: 30px; right: 30px; text-align:right; font-size:50px"""">N = 1</p>","b",0,NA,NA,0,"agree",17,16,18,21,19,"25","male","good","Slight Agreement","Slight Disagreement","Slight Disagreement","Slight Disagreement","Slight Agreement","Moderate Agreement","Slight Agreement","Moderate Disagreement","Moderate Disagreement","Moderate Disagreement","Strong Disagreement","Moderate Disagreement","Slight Agreement","Slight Agreement","Slight Agreement","Strong Disagreement","Strong Agreement","Strong Agreement"
"40","AC25X0FNY5XIC:37M28K1J0RJEHTKRD97HFHRRPSFAJU","1",1,4,1,"5","<p style=""font-size:100px""><b>b</b></p><p style=""position: absolute; top: 30px; right: 30px; text-align:right; font-size:50px"""">N = 1</p>","b",0,NA,NA,0,"agree",17,16,18,21,19,"25","male","good","Slight Agreement","Slight Disagreement","Slight Disagreement","Slight Disagreement","Slight Agreement","Moderate Agreement","Slight Agreement","Moderate Disagreement","Moderate Disagreement","Moderate Disagreement","Strong Disagreement","Moderate Disagreement","Slight Agreement","Slight Agreement","Slight Agreement","Strong Disagreement","Strong Agreement","Strong Agreement"
"41","AC25X0FNY5XIC:37M28K1J0RJEHTKRD97HFHRRPSFAJU","1",1,5,1,"5","<p style=""font-size:100px""><b>G</b></p><p style=""position: absolute; top: 30px; right: 30px; text-align:right; font-size:50px"""">N = 1</p>","G",0,NA,NA,0,"agree",17,16,18,21,19,"25","male","good","Slight Agreement","Slight Disagreement","Slight Disagreement","Slight Disagreement","Slight Agreement","Moderate Agreement","Slight Agreement","Moderate Disagreement","Moderate Disagreement","Moderate Disagreement","Strong Disagreement","Moderate Disagreement","Slight Agreement","Slight Agreement","Slight Agreement","Strong Disagreement","Strong Agreement","Strong Agreement"
"42","AC25X0FNY5XIC:37M28K1J0RJEHTKRD97HFHRRPSFAJU","1",1,6,1,"5","<p style=""font-size:100px""><b>G</b></p><p style=""position: absolute; top: 30px; right: 30px; text-align:right; font-size:50px"""">N = 1</p>","G",0,69,547.100000023842,0,"agree",17,16,18,21,19,"25","male","good","Slight Agreement","Slight Disagreement","Slight Disagreement","Slight Disagreement","Slight Agreement","Moderate Agreement","Slight Agreement","Moderate Disagreement","Moderate Disagreement","Moderate Disagreement","Strong Disagreement","Moderate Disagreement","Slight Agreement","Slight Agreement","Slight Agreement","Strong Disagreement","Strong Agreement","Strong Agreement"
"43","AC25X0FNY5XIC:37M28K1J0RJEHTKRD97HFHRRPSFAJU","1",1,7,1,"5","<p style=""font-size:100px""><b>p</b></p><p style=""position: absolute; top: 30px; right: 30px; text-align:right; font-size:50px"""">N = 1</p>","p",0,69,233,0,"agree",17,16,18,21,19,"25","male","good","Slight Agreement","Slight Disagreement","Slight Disagreement","Slight Disagreement","Slight Agreement","Moderate Agreement","Slight Agreement","Moderate Disagreement","Moderate Disagreement","Moderate Disagreement","Strong Disagreement","Moderate Disagreement","Slight Agreement","Slight Agreement","Slight Agreement","Strong Disagreement","Strong Agreement","Strong Agreement"
"44","AC25X0FNY5XIC:37M28K1J0RJEHTKRD97HFHRRPSFAJU","1",1,8,1,"5","<p style=""font-size:100px""><b>B</b></p><p style=""position: absolute; top: 30px; right: 30px; text-align:right; font-size:50px"""">N = 1</p>","B",0,NA,NA,0,"agree",17,16,18,21,19,"25","male","good","Slight Agreement","Slight Disagreement","Slight Disagreement","Slight Disagreement","Slight Agreement","Moderate Agreement","Slight Agreement","Moderate Disagreement","Moderate Disagreement","Moderate Disagreement","Strong Disagreement","Moderate Disagreement","Slight Agreement","Slight Agreement","Slight Agreement","Strong Disagreement","Strong Agreement","Strong Agreement"
"45","AC25X0FNY5XIC:37M28K1J0RJEHTKRD97HFHRRPSFAJU","1",1,9,1,"5","<p style=""font-size:100px""><b>d</b></p><p style=""position: absolute; top: 30px; right: 30px; text-align:right; font-size:50px"""">N = 1</p>","d",0,69,229.600000023842,0,"agree",17,16,18,21,19,"25","male","good","Slight Agreement","Slight Disagreement","Slight Disagreement","Slight Disagreement","Slight Agreement","Moderate Agreement","Slight Agreement","Moderate Disagreement","Moderate Disagreement","Moderate Disagreement","Strong Disagreement","Moderate Disagreement","Slight Agreement","Slight Agreement","Slight Agreement","Strong Disagreement","Strong Agreement","Strong Agreement"
"46","AC25X0FNY5XIC:37M28K1J0RJEHTKRD97HFHRRPSFAJU","1",1,10,1,"5","<p style=""font-size:100px""><b>d</b></p><p style=""position: absolute; top: 30px; right: 30px; text-align:right; font-size:50px"""">N = 1</p>","d",0,69,272.599999964237,0,"agree",17,16,18,21,19,"25","male","good","Slight Agreement","Slight Disagreement","Slight Disagreement","Slight Disagreement","Slight Agreement","Moderate Agreement","Slight Agreement","Moderate Disagreement","Moderate Disagreement","Moderate Disagreement","Strong Disagreement","Moderate Disagreement","Slight Agreement","Slight Agreement","Slight Agreement","Strong Disagreement","Strong Agreement","Strong Agreement"
"47","AC25X0FNY5XIC:37M28K1J0RJEHTKRD97HFHRRPSFAJU","1",1,11,1,"5","<p style=""font-size:100px""><b>V</b></p><p style=""position: absolute; top: 30px; right: 30px; text-align:right; font-size:50px"""">N = 1</p>","V",0,69,433.599999964237,0,"agree",17,16,18,21,19,"25","male","good","Slight Agreement","Slight Disagreement","Slight Disagreement","Slight Disagreement","Slight Agreement","Moderate Agreement","Slight Agreement","Moderate Disagreement","Moderate Disagreement","Moderate Disagreement","Strong Disagreement","Moderate Disagreement","Slight Agreement","Slight Agreement","Slight Agreement","Strong Disagreement","Strong Agreement","Strong Agreement"
"48","AC25X0FNY5XIC:37M28K1J0RJEHTKRD97HFHRRPSFAJU","1",1,12,1,"5","<p style=""font-size:100px""><b>G</b></p><p style=""position: absolute; top: 30px; right: 30px; text-align:right; font-size:50px"""">N = 1</p>","G",0,NA,NA,0,"agree",17,16,18,21,19,"25","male","good","Slight Agreement","Slight Disagreement","Slight Disagreement","Slight Disagreement","Slight Agreement","Moderate Agreement","Slight Agreement","Moderate Disagreement","Moderate Disagreement","Moderate Disagreement","Strong Disagreement","Moderate Disagreement","Slight Agreement","Slight Agreement","Slight Agreement","Strong Disagreement","Strong Agreement","Strong Agreement"
"49","AC25X0FNY5XIC:37M28K1J0RJEHTKRD97HFHRRPSFAJU","1",2,1,1,"5","<p style=""font-size:100px""><b>p</b></p><p style=""position: absolute; top: 30px; right: 30px; text-align:right; font-size:50px"""">N = 1</p>","p",0,NA,NA,0,"agree",16,12,19,21,16,"25","male","good","Slight Agreement","Slight Disagreement","Slight Disagreement","Slight Disagreement","Slight Agreement","Moderate Agreement","Slight Agreement","Moderate Disagreement","Moderate Disagreement","Moderate Disagreement","Strong Disagreement","Moderate Disagreement","Slight Agreement","Slight Agreement","Slight Agreement","Strong Disagreement","Strong Agreement","Strong Agreement"
"50","AC25X0FNY5XIC:37M28K1J0RJEHTKRD97HFHRRPSFAJU","1",2,2,1,"5","<p style=""font-size:100px""><b>p</b></p><p style=""position: absolute; top: 30px; right: 30px; text-align:right; font-size:50px"""">N = 1</p>","p",0,NA,NA,0,"agree",16,12,19,21,16,"25","male","good","Slight Agreement","Slight Disagreement","Slight Disagreement","Slight Disagreement","Slight Agreement","Moderate Agreement","Slight Agreement","Moderate Disagreement","Moderate Disagreement","Moderate Disagreement","Strong Disagreement","Moderate Disagreement","Slight Agreement","Slight Agreement","Slight Agreement","Strong Disagreement","Strong Agreement","Strong Agreement"
"51","AC25X0FNY5XIC:37M28K1J0RJEHTKRD97HFHRRPSFAJU","1",2,3,1,"5","<p style=""font-size:100px""><b>p</b></p><p style=""position: absolute; top: 30px; right: 30px; text-align:right; font-size:50px"""">N = 1</p>","p",0,NA,NA,0,"agree",16,12,19,21,16,"25","male","good","Slight Agreement","Slight Disagreement","Slight Disagreement","Slight Disagreement","Slight Agreement","Moderate Agreement","Slight Agreement","Moderate Disagreement","Moderate Disagreement","Moderate Disagreement","Strong Disagreement","Moderate Disagreement","Slight Agreement","Slight Agreement","Slight Agreement","Strong Disagreement","Strong Agreement","Strong Agreement"
"52","AC25X0FNY5XIC:37M28K1J0RJEHTKRD97HFHRRPSFAJU","1",2,4,1,"5","<p style=""font-size:100px""><b>p</b></p><p style=""position: absolute; top: 30px; right: 30px; text-align:right; font-size:50px"""">N = 1</p>","p",0,NA,NA,0,"agree",16,12,19,21,16,"25","male","good","Slight Agreement","Slight Disagreement","Slight Disagreement","Slight Disagreement","Slight Agreement","Moderate Agreement","Slight Agreement","Moderate Disagreement","Moderate Disagreement","Moderate Disagreement","Strong Disagreement","Moderate Disagreement","Slight Agreement","Slight Agreement","Slight Agreement","Strong Disagreement","Strong Agreement","Strong Agreement"
"53","AC25X0FNY5XIC:37M28K1J0RJEHTKRD97HFHRRPSFAJU","1",2,5,1,"5","<p style=""font-size:100px""><b>p</b></p><p style=""position: absolute; top: 30px; right: 30px; text-align:right; font-size:50px"""">N = 1</p>","p",0,NA,NA,0,"agree",16,12,19,21,16,"25","male","good","Slight Agreement","Slight Disagreement","Slight Disagreement","Slight Disagreement","Slight Agreement","Moderate Agreement","Slight Agreement","Moderate Disagreement","Moderate Disagreement","Moderate Disagreement","Strong Disagreement","Moderate Disagreement","Slight Agreement","Slight Agreement","Slight Agreement","Strong Disagreement","Strong Agreement","Strong Agreement"
"54","AC25X0FNY5XIC:37M28K1J0RJEHTKRD97HFHRRPSFAJU","1",2,6,1,"5","<p style=""font-size:100px""><b>G</b></p><p style=""position: absolute; top: 30px; right: 30px; text-align:right; font-size:50px"""">N = 1</p>","G",0,NA,NA,0,"agree",16,12,19,21,16,"25","male","good","Slight Agreement","Slight Disagreement","Slight Disagreement","Slight Disagreement","Slight Agreement","Moderate Agreement","Slight Agreement","Moderate Disagreement","Moderate Disagreement","Moderate Disagreement","Strong Disagreement","Moderate Disagreement","Slight Agreement","Slight Agreement","Slight Agreement","Strong Disagreement","Strong Agreement","Strong Agreement"
"55","AC25X0FNY5XIC:37M28K1J0RJEHTKRD97HFHRRPSFAJU","1",2,7,1,"5","<p style=""font-size:100px""><b>v</b></p><p style=""position: absolute; top: 30px; right: 30px; text-align:right; font-size:50px"""">N = 1</p>","v",0,NA,NA,0,"agree",16,12,19,21,16,"25","male","good","Slight Agreement","Slight Disagreement","Slight Disagreement","Slight Disagreement","Slight Agreement","Moderate Agreement","Slight Agreement","Moderate Disagreement","Moderate Disagreement","Moderate Disagreement","Strong Disagreement","Moderate Disagreement","Slight Agreement","Slight Agreement","Slight Agreement","Strong Disagreement","Strong Agreement","Strong Agreement"
"56","AC25X0FNY5XIC:37M28K1J0RJEHTKRD97HFHRRPSFAJU","1",2,8,1,"5","<p style=""font-size:100px""><b>g</b></p><p style=""position: absolute; top: 30px; right: 30px; text-align:right; font-size:50px"""">N = 1</p>","g",0,NA,NA,0,"agree",16,12,19,21,16,"25","male","good","Slight Agreement","Slight Disagreement","Slight Disagreement","Slight Disagreement","Slight Agreement","Moderate Agreement","Slight Agreement","Moderate Disagreement","Moderate Disagreement","Moderate Disagreement","Strong Disagreement","Moderate Disagreement","Slight Agreement","Slight Agreement","Slight Agreement","Strong Disagreement","Strong Agreement","Strong Agreement"
"57","AC25X0FNY5XIC:37M28K1J0RJEHTKRD97HFHRRPSFAJU","1",2,9,1,"5","<p style=""font-size:100px""><b>V</b></p><p style=""position: absolute; top: 30px; right: 30px; text-align:right; font-size:50px"""">N = 1</p>","V",0,NA,NA,0,"agree",16,12,19,21,16,"25","male","good","Slight Agreement","Slight Disagreement","Slight Disagreement","Slight Disagreement","Slight Agreement","Moderate Agreement","Slight Agreement","Moderate Disagreement","Moderate Disagreement","Moderate Disagreement","Strong Disagreement","Moderate Disagreement","Slight Agreement","Slight Agreement","Slight Agreement","Strong Disagreement","Strong Agreement","Strong Agreement"
"58","AC25X0FNY5XIC:37M28K1J0RJEHTKRD97HFHRRPSFAJU","1",2,10,1,"5","<p style=""font-size:100px""><b>D</b></p><p style=""position: absolute; top: 30px; right: 30px; text-align:right; font-size:50px"""">N = 1</p>","D",0,73,23.6999999880791,1,"agree",16,12,19,21,16,"25","male","good","Slight Agreement","Slight Disagreement","Slight Disagreement","Slight Disagreement","Slight Agreement","Moderate Agreement","Slight Agreement","Moderate Disagreement","Moderate Disagreement","Moderate Disagreement","Strong Disagreement","Moderate Disagreement","Slight Agreement","Slight Agreement","Slight Agreement","Strong Disagreement","Strong Agreement","Strong Agreement"
"59","AC25X0FNY5XIC:37M28K1J0RJEHTKRD97HFHRRPSFAJU","1",2,11,1,"5","<p style=""font-size:100px""><b>g</b></p><p style=""position: absolute; top: 30px; right: 30px; text-align:right; font-size:50px"""">N = 1</p>","g",0,NA,NA,0,"agree",16,12,19,21,16,"25","male","good","Slight Agreement","Slight Disagreement","Slight Disagreement","Slight Disagreement","Slight Agreement","Moderate Agreement","Slight Agreement","Moderate Disagreement","Moderate Disagreement","Moderate Disagreement","Strong Disagreement","Moderate Disagreement","Slight Agreement","Slight Agreement","Slight Agreement","Strong Disagreement","Strong Agreement","Strong Agreement"
"60","AC25X0FNY5XIC:37M28K1J0RJEHTKRD97HFHRRPSFAJU","1",2,12,1,"5","<p style=""font-size:100px""><b>V</b></p><p style=""position: absolute; top: 30px; right: 30px; text-align:right; font-size:50px"""">N = 1</p>","V",0,NA,NA,0,"agree",16,12,19,21,16,"25","male","good","Slight Agreement","Slight Disagreement","Slight Disagreement","Slight Disagreement","Slight Agreement","Moderate Agreement","Slight Agreement","Moderate Disagreement","Moderate Disagreement","Moderate Disagreement","Strong Disagreement","Moderate Disagreement","Slight Agreement","Slight Agreement","Slight Agreement","Strong Disagreement","Strong Agreement","Strong Agreement"
"61","AC25X0FNY5XIC:37M28K1J0RJEHTKRD97HFHRRPSFAJU","1",3,1,2,"5","<p style=""font-size:100px""><b>d</b></p><p style=""position: absolute; top: 30px; right: 30px; text-align:right; font-size:50px"""">N = 2</p>","d",0,NA,NA,0,"agree",18,16,17,10,16,"25","male","good","Slight Agreement","Slight Disagreement","Slight Disagreement","Slight Disagreement","Slight Agreement","Moderate Agreement","Slight Agreement","Moderate Disagreement","Moderate Disagreement","Moderate Disagreement","Strong Disagreement","Moderate Disagreement","Slight Agreement","Slight Agreement","Slight Agreement","Strong Disagreement","Strong Agreement","Strong Agreement"
"62","AC25X0FNY5XIC:37M28K1J0RJEHTKRD97HFHRRPSFAJU","1",3,2,2,"5","<p style=""font-size:100px""><b>v</b></p><p style=""position: absolute; top: 30px; right: 30px; text-align:right; font-size:50px"""">N = 2</p>","v",0,69,715.899999976158,0,"agree",18,16,17,10,16,"25","male","good","Slight Agreement","Slight Disagreement","Slight Disagreement","Slight Disagreement","Slight Agreement","Moderate Agreement","Slight Agreement","Moderate Disagreement","Moderate Disagreement","Moderate Disagreement","Strong Disagreement","Moderate Disagreement","Slight Agreement","Slight Agreement","Slight Agreement","Strong Disagreement","Strong Agreement","Strong Agreement"
"63","AC25X0FNY5XIC:37M28K1J0RJEHTKRD97HFHRRPSFAJU","1",3,3,2,"5","<p style=""font-size:100px""><b>d</b></p><p style=""position: absolute; top: 30px; right: 30px; text-align:right; font-size:50px"""">N = 2</p>","d",0,NA,NA,0,"agree",18,16,17,10,16,"25","male","good","Slight Agreement","Slight Disagreement","Slight Disagreement","Slight Disagreement","Slight Agreement","Moderate Agreement","Slight Agreement","Moderate Disagreement","Moderate Disagreement","Moderate Disagreement","Strong Disagreement","Moderate Disagreement","Slight Agreement","Slight Agreement","Slight Agreement","Strong Disagreement","Strong Agreement","Strong Agreement"
"64","AC25X0FNY5XIC:37M28K1J0RJEHTKRD97HFHRRPSFAJU","1",3,4,2,"5","<p style=""font-size:100px""><b>P</b></p><p style=""position: absolute; top: 30px; right: 30px; text-align:right; font-size:50px"""">N = 2</p>","P",0,NA,NA,0,"agree",18,16,17,10,16,"25","male","good","Slight Agreement","Slight Disagreement","Slight Disagreement","Slight Disagreement","Slight Agreement","Moderate Agreement","Slight Agreement","Moderate Disagreement","Moderate Disagreement","Moderate Disagreement","Strong Disagreement","Moderate Disagreement","Slight Agreement","Slight Agreement","Slight Agreement","Strong Disagreement","Strong Agreement","Strong Agreement"
"65","AC25X0FNY5XIC:37M28K1J0RJEHTKRD97HFHRRPSFAJU","1",3,5,2,"5","<p style=""font-size:100px""><b>t</b></p><p style=""position: absolute; top: 30px; right: 30px; text-align:right; font-size:50px"""">N = 2</p>","t",0,NA,NA,0,"agree",18,16,17,10,16,"25","male","good","Slight Agreement","Slight Disagreement","Slight Disagreement","Slight Disagreement","Slight Agreement","Moderate Agreement","Slight Agreement","Moderate Disagreement","Moderate Disagreement","Moderate Disagreement","Strong Disagreement","Moderate Disagreement","Slight Agreement","Slight Agreement","Slight Agreement","Strong Disagreement","Strong Agreement","Strong Agreement"
"66","AC25X0FNY5XIC:37M28K1J0RJEHTKRD97HFHRRPSFAJU","1",3,6,2,"5","<p style=""font-size:100px""><b>V</b></p><p style=""position: absolute; top: 30px; right: 30px; text-align:right; font-size:50px"""">N = 2</p>","V",0,NA,NA,0,"agree",18,16,17,10,16,"25","male","good","Slight Agreement","Slight Disagreement","Slight Disagreement","Slight Disagreement","Slight Agreement","Moderate Agreement","Slight Agreement","Moderate Disagreement","Moderate Disagreement","Moderate Disagreement","Strong Disagreement","Moderate Disagreement","Slight Agreement","Slight Agreement","Slight Agreement","Strong Disagreement","Strong Agreement","Strong Agreement"
"67","AC25X0FNY5XIC:37M28K1J0RJEHTKRD97HFHRRPSFAJU","1",3,7,2,"5","<p style=""font-size:100px""><b>t</b></p><p style=""position: absolute; top: 30px; right: 30px; text-align:right; font-size:50px"""">N = 2</p>","t",0,NA,NA,0,"agree",18,16,17,10,16,"25","male","good","Slight Agreement","Slight Disagreement","Slight Disagreement","Slight Disagreement","Slight Agreement","Moderate Agreement","Slight Agreement","Moderate Disagreement","Moderate Disagreement","Moderate Disagreement","Strong Disagreement","Moderate Disagreement","Slight Agreement","Slight Agreement","Slight Agreement","Strong Disagreement","Strong Agreement","Strong Agreement"
"68","AC25X0FNY5XIC:37M28K1J0RJEHTKRD97HFHRRPSFAJU","1",3,8,2,"5","<p style=""font-size:100px""><b>d</b></p><p style=""position: absolute; top: 30px; right: 30px; text-align:right; font-size:50px"""">N = 2</p>","d",0,NA,NA,0,"agree",18,16,17,10,16,"25","male","good","Slight Agreement","Slight Disagreement","Slight Disagreement","Slight Disagreement","Slight Agreement","Moderate Agreement","Slight Agreement","Moderate Disagreement","Moderate Disagreement","Moderate Disagreement","Strong Disagreement","Moderate Disagreement","Slight Agreement","Slight Agreement","Slight Agreement","Strong Disagreement","Strong Agreement","Strong Agreement"
"69","AC25X0FNY5XIC:37M28K1J0RJEHTKRD97HFHRRPSFAJU","1",3,9,2,"5","<p style=""font-size:100px""><b>p</b></p><p style=""position: absolute; top: 30px; right: 30px; text-align:right; font-size:50px"""">N = 2</p>","p",0,NA,NA,0,"agree",18,16,17,10,16,"25","male","good","Slight Agreement","Slight Disagreement","Slight Disagreement","Slight Disagreement","Slight Agreement","Moderate Agreement","Slight Agreement","Moderate Disagreement","Moderate Disagreement","Moderate Disagreement","Strong Disagreement","Moderate Disagreement","Slight Agreement","Slight Agreement","Slight Agreement","Strong Disagreement","Strong Agreement","Strong Agreement"
"70","AC25X0FNY5XIC:37M28K1J0RJEHTKRD97HFHRRPSFAJU","1",3,10,2,"5","<p style=""font-size:100px""><b>d</b></p><p style=""position: absolute; top: 30px; right: 30px; text-align:right; font-size:50px"""">N = 2</p>","d",0,NA,NA,0,"agree",18,16,17,10,16,"25","male","good","Slight Agreement","Slight Disagreement","Slight Disagreement","Slight Disagreement","Slight Agreement","Moderate Agreement","Slight Agreement","Moderate Disagreement","Moderate Disagreement","Moderate Disagreement","Strong Disagreement","Moderate Disagreement","Slight Agreement","Slight Agreement","Slight Agreement","Strong Disagreement","Strong Agreement","Strong Agreement"
"71","AC25X0FNY5XIC:37M28K1J0RJEHTKRD97HFHRRPSFAJU","1",3,11,2,"5","<p style=""font-size:100px""><b>p</b></p><p style=""position: absolute; top: 30px; right: 30px; text-align:right; font-size:50px"""">N = 2</p>","p",0,NA,NA,0,"agree",18,16,17,10,16,"25","male","good","Slight Agreement","Slight Disagreement","Slight Disagreement","Slight Disagreement","Slight Agreement","Moderate Agreement","Slight Agreement","Moderate Disagreement","Moderate Disagreement","Moderate Disagreement","Strong Disagreement","Moderate Disagreement","Slight Agreement","Slight Agreement","Slight Agreement","Strong Disagreement","Strong Agreement","Strong Agreement"
"72","AC25X0FNY5XIC:37M28K1J0RJEHTKRD97HFHRRPSFAJU","1",3,12,2,"5","<p style=""font-size:100px""><b>p</b></p><p style=""position: absolute; top: 30px; right: 30px; text-align:right; font-size:50px"""">N = 2</p>","p",0,NA,NA,0,"agree",18,16,17,10,16,"25","male","good","Slight Agreement","Slight Disagreement","Slight Disagreement","Slight Disagreement","Slight Agreement","Moderate Agreement","Slight Agreement","Moderate Disagreement","Moderate Disagreement","Moderate Disagreement","Strong Disagreement","Moderate Disagreement","Slight Agreement","Slight Agreement","Slight Agreement","Strong Disagreement","Strong Agreement","Strong Agreement"
"73","AC25X0FNY5XIC:37M28K1J0RJEHTKRD97HFHRRPSFAJU","1",4,1,2,"5","<p style=""font-size:100px""><b>B</b></p><p style=""position: absolute; top: 30px; right: 30px; text-align:right; font-size:50px"""">N = 2</p>","B",0,NA,NA,0,"agree",15,16,16,15,17,"25","male","good","Slight Agreement","Slight Disagreement","Slight Disagreement","Slight Disagreement","Slight Agreement","Moderate Agreement","Slight Agreement","Moderate Disagreement","Moderate Disagreement","Moderate Disagreement","Strong Disagreement","Moderate Disagreement","Slight Agreement","Slight Agreement","Slight Agreement","Strong Disagreement","Strong Agreement","Strong Agreement"
"74","AC25X0FNY5XIC:37M28K1J0RJEHTKRD97HFHRRPSFAJU","1",4,2,2,"5","<p style=""font-size:100px""><b>D</b></p><p style=""position: absolute; top: 30px; right: 30px; text-align:right; font-size:50px"""">N = 2</p>","D",0,NA,NA,0,"agree",15,16,16,15,17,"25","male","good","Slight Agreement","Slight Disagreement","Slight Disagreement","Slight Disagreement","Slight Agreement","Moderate Agreement","Slight Agreement","Moderate Disagreement","Moderate Disagreement","Moderate Disagreement","Strong Disagreement","Moderate Disagreement","Slight Agreement","Slight Agreement","Slight Agreement","Strong Disagreement","Strong Agreement","Strong Agreement"
"75","AC25X0FNY5XIC:37M28K1J0RJEHTKRD97HFHRRPSFAJU","1",4,3,2,"5","<p style=""font-size:100px""><b>d</b></p><p style=""position: absolute; top: 30px; right: 30px; text-align:right; font-size:50px"""">N = 2</p>","d",0,NA,NA,0,"agree",15,16,16,15,17,"25","male","good","Slight Agreement","Slight Disagreement","Slight Disagreement","Slight Disagreement","Slight Agreement","Moderate Agreement","Slight Agreement","Moderate Disagreement","Moderate Disagreement","Moderate Disagreement","Strong Disagreement","Moderate Disagreement","Slight Agreement","Slight Agreement","Slight Agreement","Strong Disagreement","Strong Agreement","Strong Agreement"
"76","AC25X0FNY5XIC:37M28K1J0RJEHTKRD97HFHRRPSFAJU","1",4,4,2,"5","<p style=""font-size:100px""><b>D</b></p><p style=""position: absolute; top: 30px; right: 30px; text-align:right; font-size:50px"""">N = 2</p>","D",0,NA,NA,0,"agree",15,16,16,15,17,"25","male","good","Slight Agreement","Slight Disagreement","Slight Disagreement","Slight Disagreement","Slight Agreement","Moderate Agreement","Slight Agreement","Moderate Disagreement","Moderate Disagreement","Moderate Disagreement","Strong Disagreement","Moderate Disagreement","Slight Agreement","Slight Agreement","Slight Agreement","Strong Disagreement","Strong Agreement","Strong Agreement"
"77","AC25X0FNY5XIC:37M28K1J0RJEHTKRD97HFHRRPSFAJU","1",4,5,2,"5","<p style=""font-size:100px""><b>V</b></p><p style=""position: absolute; top: 30px; right: 30px; text-align:right; font-size:50px"""">N = 2</p>","V",0,NA,NA,0,"agree",15,16,16,15,17,"25","male","good","Slight Agreement","Slight Disagreement","Slight Disagreement","Slight Disagreement","Slight Agreement","Moderate Agreement","Slight Agreement","Moderate Disagreement","Moderate Disagreement","Moderate Disagreement","Strong Disagreement","Moderate Disagreement","Slight Agreement","Slight Agreement","Slight Agreement","Strong Disagreement","Strong Agreement","Strong Agreement"
"78","AC25X0FNY5XIC:37M28K1J0RJEHTKRD97HFHRRPSFAJU","1",4,6,2,"5","<p style=""font-size:100px""><b>D</b></p><p style=""position: absolute; top: 30px; right: 30px; text-align:right; font-size:50px"""">N = 2</p>","D",0,NA,NA,0,"agree",15,16,16,15,17,"25","male","good","Slight Agreement","Slight Disagreement","Slight Disagreement","Slight Disagreement","Slight Agreement","Moderate Agreement","Slight Agreement","Moderate Disagreement","Moderate Disagreement","Moderate Disagreement","Strong Disagreement","Moderate Disagreement","Slight Agreement","Slight Agreement","Slight Agreement","Strong Disagreement","Strong Agreement","Strong Agreement"
"79","AC25X0FNY5XIC:37M28K1J0RJEHTKRD97HFHRRPSFAJU","1",4,7,2,"5","<p style=""font-size:100px""><b>b</b></p><p style=""position: absolute; top: 30px; right: 30px; text-align:right; font-size:50px"""">N = 2</p>","b",0,NA,NA,0,"agree",15,16,16,15,17,"25","male","good","Slight Agreement","Slight Disagreement","Slight Disagreement","Slight Disagreement","Slight Agreement","Moderate Agreement","Slight Agreement","Moderate Disagreement","Moderate Disagreement","Moderate Disagreement","Strong Disagreement","Moderate Disagreement","Slight Agreement","Slight Agreement","Slight Agreement","Strong Disagreement","Strong Agreement","Strong Agreement"
"80","AC25X0FNY5XIC:37M28K1J0RJEHTKRD97HFHRRPSFAJU","1",4,8,2,"5","<p style=""font-size:100px""><b>t</b></p><p style=""position: absolute; top: 30px; right: 30px; text-align:right; font-size:50px"""">N = 2</p>","t",0,NA,NA,0,"agree",15,16,16,15,17,"25","male","good","Slight Agreement","Slight Disagreement","Slight Disagreement","Slight Disagreement","Slight Agreement","Moderate Agreement","Slight Agreement","Moderate Disagreement","Moderate Disagreement","Moderate Disagreement","Strong Disagreement","Moderate Disagreement","Slight Agreement","Slight Agreement","Slight Agreement","Strong Disagreement","Strong Agreement","Strong Agreement"
"81","AC25X0FNY5XIC:37M28K1J0RJEHTKRD97HFHRRPSFAJU","1",4,9,2,"5","<p style=""font-size:100px""><b>b</b></p><p style=""position: absolute; top: 30px; right: 30px; text-align:right; font-size:50px"""">N = 2</p>","b",0,NA,NA,0,"agree",15,16,16,15,17,"25","male","good","Slight Agreement","Slight Disagreement","Slight Disagreement","Slight Disagreement","Slight Agreement","Moderate Agreement","Slight Agreement","Moderate Disagreement","Moderate Disagreement","Moderate Disagreement","Strong Disagreement","Moderate Disagreement","Slight Agreement","Slight Agreement","Slight Agreement","Strong Disagreement","Strong Agreement","Strong Agreement"
"82","AC25X0FNY5XIC:37M28K1J0RJEHTKRD97HFHRRPSFAJU","1",4,10,2,"5","<p style=""font-size:100px""><b>V</b></p><p style=""position: absolute; top: 30px; right: 30px; text-align:right; font-size:50px"""">N = 2</p>","V",0,NA,NA,0,"agree",15,16,16,15,17,"25","male","good","Slight Agreement","Slight Disagreement","Slight Disagreement","Slight Disagreement","Slight Agreement","Moderate Agreement","Slight Agreement","Moderate Disagreement","Moderate Disagreement","Moderate Disagreement","Strong Disagreement","Moderate Disagreement","Slight Agreement","Slight Agreement","Slight Agreement","Strong Disagreement","Strong Agreement","Strong Agreement"
"83","AC25X0FNY5XIC:37M28K1J0RJEHTKRD97HFHRRPSFAJU","1",4,11,2,"5","<p style=""font-size:100px""><b>b</b></p><p style=""position: absolute; top: 30px; right: 30px; text-align:right; font-size:50px"""">N = 2</p>","b",0,NA,NA,0,"agree",15,16,16,15,17,"25","male","good","Slight Agreement","Slight Disagreement","Slight Disagreement","Slight Disagreement","Slight Agreement","Moderate Agreement","Slight Agreement","Moderate Disagreement","Moderate Disagreement","Moderate Disagreement","Strong Disagreement","Moderate Disagreement","Slight Agreement","Slight Agreement","Slight Agreement","Strong Disagreement","Strong Agreement","Strong Agreement"
"84","AC25X0FNY5XIC:37M28K1J0RJEHTKRD97HFHRRPSFAJU","1",4,12,2,"5","<p style=""font-size:100px""><b>D</b></p><p style=""position: absolute; top: 30px; right: 30px; text-align:right; font-size:50px"""">N = 2</p>","D",0,NA,NA,0,"agree",15,16,16,15,17,"25","male","good","Slight Agreement","Slight Disagreement","Slight Disagreement","Slight Disagreement","Slight Agreement","Moderate Agreement","Slight Agreement","Moderate Disagreement","Moderate Disagreement","Moderate Disagreement","Strong Disagreement","Moderate Disagreement","Slight Agreement","Slight Agreement","Slight Agreement","Strong Disagreement","Strong Agreement","Strong Agreement"
"85","AC25X0FNY5XIC:37M28K1J0RJEHTKRD97HFHRRPSFAJU","1",5,1,2,"5","<p style=""font-size:100px""><b>G</b></p><p style=""position: absolute; top: 30px; right: 30px; text-align:right; font-size:50px"""">N = 2</p>","G",0,NA,NA,0,"agree",16,17,21,18,18,"25","male","good","Slight Agreement","Slight Disagreement","Slight Disagreement","Slight Disagreement","Slight Agreement","Moderate Agreement","Slight Agreement","Moderate Disagreement","Moderate Disagreement","Moderate Disagreement","Strong Disagreement","Moderate Disagreement","Slight Agreement","Slight Agreement","Slight Agreement","Strong Disagreement","Strong Agreement","Strong Agreement"
"86","AC25X0FNY5XIC:37M28K1J0RJEHTKRD97HFHRRPSFAJU","1",5,2,2,"5","<p style=""font-size:100px""><b>t</b></p><p style=""position: absolute; top: 30px; right: 30px; text-align:right; font-size:50px"""">N = 2</p>","t",0,NA,NA,0,"agree",16,17,21,18,18,"25","male","good","Slight Agreement","Slight Disagreement","Slight Disagreement","Slight Disagreement","Slight Agreement","Moderate Agreement","Slight Agreement","Moderate Disagreement","Moderate Disagreement","Moderate Disagreement","Strong Disagreement","Moderate Disagreement","Slight Agreement","Slight Agreement","Slight Agreement","Strong Disagreement","Strong Agreement","Strong Agreement"
"87","AC25X0FNY5XIC:37M28K1J0RJEHTKRD97HFHRRPSFAJU","1",5,3,2,"5","<p style=""font-size:100px""><b>P</b></p><p style=""position: absolute; top: 30px; right: 30px; text-align:right; font-size:50px"""">N = 2</p>","P",0,NA,NA,0,"agree",16,17,21,18,18,"25","male","good","Slight Agreement","Slight Disagreement","Slight Disagreement","Slight Disagreement","Slight Agreement","Moderate Agreement","Slight Agreement","Moderate Disagreement","Moderate Disagreement","Moderate Disagreement","Strong Disagreement","Moderate Disagreement","Slight Agreement","Slight Agreement","Slight Agreement","Strong Disagreement","Strong Agreement","Strong Agreement"
"88","AC25X0FNY5XIC:37M28K1J0RJEHTKRD97HFHRRPSFAJU","1",5,4,2,"5","<p style=""font-size:100px""><b>g</b></p><p style=""position: absolute; top: 30px; right: 30px; text-align:right; font-size:50px"""">N = 2</p>","g",0,NA,NA,0,"agree",16,17,21,18,18,"25","male","good","Slight Agreement","Slight Disagreement","Slight Disagreement","Slight Disagreement","Slight Agreement","Moderate Agreement","Slight Agreement","Moderate Disagreement","Moderate Disagreement","Moderate Disagreement","Strong Disagreement","Moderate Disagreement","Slight Agreement","Slight Agreement","Slight Agreement","Strong Disagreement","Strong Agreement","Strong Agreement"
"89","AC25X0FNY5XIC:37M28K1J0RJEHTKRD97HFHRRPSFAJU","1",5,5,2,"5","<p style=""font-size:100px""><b>P</b></p><p style=""position: absolute; top: 30px; right: 30px; text-align:right; font-size:50px"""">N = 2</p>","P",0,NA,NA,0,"agree",16,17,21,18,18,"25","male","good","Slight Agreement","Slight Disagreement","Slight Disagreement","Slight Disagreement","Slight Agreement","Moderate Agreement","Slight Agreement","Moderate Disagreement","Moderate Disagreement","Moderate Disagreement","Strong Disagreement","Moderate Disagreement","Slight Agreement","Slight Agreement","Slight Agreement","Strong Disagreement","Strong Agreement","Strong Agreement"
"90","AC25X0FNY5XIC:37M28K1J0RJEHTKRD97HFHRRPSFAJU","1",5,6,2,"5","<p style=""font-size:100px""><b>g</b></p><p style=""position: absolute; top: 30px; right: 30px; text-align:right; font-size:50px"""">N = 2</p>","g",0,NA,NA,0,"agree",16,17,21,18,18,"25","male","good","Slight Agreement","Slight Disagreement","Slight Disagreement","Slight Disagreement","Slight Agreement","Moderate Agreement","Slight Agreement","Moderate Disagreement","Moderate Disagreement","Moderate Disagreement","Strong Disagreement","Moderate Disagreement","Slight Agreement","Slight Agreement","Slight Agreement","Strong Disagreement","Strong Agreement","Strong Agreement"
"91","AC25X0FNY5XIC:37M28K1J0RJEHTKRD97HFHRRPSFAJU","1",5,7,2,"5","<p style=""font-size:100px""><b>P</b></p><p style=""position: absolute; top: 30px; right: 30px; text-align:right; font-size:50px"""">N = 2</p>","P",0,NA,NA,0,"agree",16,17,21,18,18,"25","male","good","Slight Agreement","Slight Disagreement","Slight Disagreement","Slight Disagreement","Slight Agreement","Moderate Agreement","Slight Agreement","Moderate Disagreement","Moderate Disagreement","Moderate Disagreement","Strong Disagreement","Moderate Disagreement","Slight Agreement","Slight Agreement","Slight Agreement","Strong Disagreement","Strong Agreement","Strong Agreement"
"92","AC25X0FNY5XIC:37M28K1J0RJEHTKRD97HFHRRPSFAJU","1",5,8,2,"5","<p style=""font-size:100px""><b>b</b></p><p style=""position: absolute; top: 30px; right: 30px; text-align:right; font-size:50px"""">N = 2</p>","b",0,NA,NA,0,"agree",16,17,21,18,18,"25","male","good","Slight Agreement","Slight Disagreement","Slight Disagreement","Slight Disagreement","Slight Agreement","Moderate Agreement","Slight Agreement","Moderate Disagreement","Moderate Disagreement","Moderate Disagreement","Strong Disagreement","Moderate Disagreement","Slight Agreement","Slight Agreement","Slight Agreement","Strong Disagreement","Strong Agreement","Strong Agreement"
"93","AC25X0FNY5XIC:37M28K1J0RJEHTKRD97HFHRRPSFAJU","1",5,9,2,"5","<p style=""font-size:100px""><b>D</b></p><p style=""position: absolute; top: 30px; right: 30px; text-align:right; font-size:50px"""">N = 2</p>","D",0,NA,NA,0,"agree",16,17,21,18,18,"25","male","good","Slight Agreement","Slight Disagreement","Slight Disagreement","Slight Disagreement","Slight Agreement","Moderate Agreement","Slight Agreement","Moderate Disagreement","Moderate Disagreement","Moderate Disagreement","Strong Disagreement","Moderate Disagreement","Slight Agreement","Slight Agreement","Slight Agreement","Strong Disagreement","Strong Agreement","Strong Agreement"
"94","AC25X0FNY5XIC:37M28K1J0RJEHTKRD97HFHRRPSFAJU","1",5,10,2,"5","<p style=""font-size:100px""><b>t</b></p><p style=""position: absolute; top: 30px; right: 30px; text-align:right; font-size:50px"""">N = 2</p>","t",0,NA,NA,0,"agree",16,17,21,18,18,"25","male","good","Slight Agreement","Slight Disagreement","Slight Disagreement","Slight Disagreement","Slight Agreement","Moderate Agreement","Slight Agreement","Moderate Disagreement","Moderate Disagreement","Moderate Disagreement","Strong Disagreement","Moderate Disagreement","Slight Agreement","Slight Agreement","Slight Agreement","Strong Disagreement","Strong Agreement","Strong Agreement"
"95","AC25X0FNY5XIC:37M28K1J0RJEHTKRD97HFHRRPSFAJU","1",5,11,2,"5","<p style=""font-size:100px""><b>D</b></p><p style=""position: absolute; top: 30px; right: 30px; text-align:right; font-size:50px"""">N = 2</p>","D",0,NA,NA,0,"agree",16,17,21,18,18,"25","male","good","Slight Agreement","Slight Disagreement","Slight Disagreement","Slight Disagreement","Slight Agreement","Moderate Agreement","Slight Agreement","Moderate Disagreement","Moderate Disagreement","Moderate Disagreement","Strong Disagreement","Moderate Disagreement","Slight Agreement","Slight Agreement","Slight Agreement","Strong Disagreement","Strong Agreement","Strong Agreement"
"96","AC25X0FNY5XIC:37M28K1J0RJEHTKRD97HFHRRPSFAJU","1",5,12,2,"5","<p style=""font-size:100px""><b>b</b></p><p style=""position: absolute; top: 30px; right: 30px; text-align:right; font-size:50px"""">N = 2</p>","b",0,NA,NA,0,"agree",16,17,21,18,18,"25","male","good","Slight Agreement","Slight Disagreement","Slight Disagreement","Slight Disagreement","Slight Agreement","Moderate Agreement","Slight Agreement","Moderate Disagreement","Moderate Disagreement","Moderate Disagreement","Strong Disagreement","Moderate Disagreement","Slight Agreement","Slight Agreement","Slight Agreement","Strong Disagreement","Strong Agreement","Strong Agreement"
"97","AC25X0FNY5XIC:37M28K1J0RJEHTKRD97HFHRRPSFAJU","1",6,1,2,"50","<p style=""font-size:100px""><b>D</b></p><p style=""position: absolute; top: 30px; right: 30px; text-align:right; font-size:50px"""">N = 2</p>","D",0,NA,NA,0,"agree",17,15,18,16,17,"25","male","good","Slight Agreement","Slight Disagreement","Slight Disagreement","Slight Disagreement","Slight Agreement","Moderate Agreement","Slight Agreement","Moderate Disagreement","Moderate Disagreement","Moderate Disagreement","Strong Disagreement","Moderate Disagreement","Slight Agreement","Slight Agreement","Slight Agreement","Strong Disagreement","Strong Agreement","Strong Agreement"
"98","AC25X0FNY5XIC:37M28K1J0RJEHTKRD97HFHRRPSFAJU","1",6,2,2,"50","<p style=""font-size:100px""><b>v</b></p><p style=""position: absolute; top: 30px; right: 30px; text-align:right; font-size:50px"""">N = 2</p>","v",0,NA,NA,0,"agree",17,15,18,16,17,"25","male","good","Slight Agreement","Slight Disagreement","Slight Disagreement","Slight Disagreement","Slight Agreement","Moderate Agreement","Slight Agreement","Moderate Disagreement","Moderate Disagreement","Moderate Disagreement","Strong Disagreement","Moderate Disagreement","Slight Agreement","Slight Agreement","Slight Agreement","Strong Disagreement","Strong Agreement","Strong Agreement"
"99","AC25X0FNY5XIC:37M28K1J0RJEHTKRD97HFHRRPSFAJU","1",6,3,2,"50","<p style=""font-size:100px""><b>P</b></p><p style=""position: absolute; top: 30px; right: 30px; text-align:right; font-size:50px"""">N = 2</p>","P",0,NA,NA,0,"agree",17,15,18,16,17,"25","male","good","Slight Agreement","Slight Disagreement","Slight Disagreement","Slight Disagreement","Slight Agreement","Moderate Agreement","Slight Agreement","Moderate Disagreement","Moderate Disagreement","Moderate Disagreement","Strong Disagreement","Moderate Disagreement","Slight Agreement","Slight Agreement","Slight Agreement","Strong Disagreement","Strong Agreement","Strong Agreement"
"100","AC25X0FNY5XIC:37M28K1J0RJEHTKRD97HFHRRPSFAJU","1",6,4,2,"50","<p style=""font-size:100px""><b>d</b></p><p style=""position: absolute; top: 30px; right: 30px; text-align:right; font-size:50px"""">N = 2</p>","d",0,NA,NA,0,"agree",17,15,18,16,17,"25","male","good","Slight Agreement","Slight Disagreement","Slight Disagreement","Slight Disagreement","Slight Agreement","Moderate Agreement","Slight Agreement","Moderate Disagreement","Moderate Disagreement","Moderate Disagreement","Strong Disagreement","Moderate Disagreement","Slight Agreement","Slight Agreement","Slight Agreement","Strong Disagreement","Strong Agreement","Strong Agreement"
"101","AC25X0FNY5XIC:37M28K1J0RJEHTKRD97HFHRRPSFAJU","1",6,5,2,"50","<p style=""font-size:100px""><b>P</b></p><p style=""position: absolute; top: 30px; right: 30px; text-align:right; font-size:50px"""">N = 2</p>","P",0,NA,NA,0,"agree",17,15,18,16,17,"25","male","good","Slight Agreement","Slight Disagreement","Slight Disagreement","Slight Disagreement","Slight Agreement","Moderate Agreement","Slight Agreement","Moderate Disagreement","Moderate Disagreement","Moderate Disagreement","Strong Disagreement","Moderate Disagreement","Slight Agreement","Slight Agreement","Slight Agreement","Strong Disagreement","Strong Agreement","Strong Agreement"
"102","AC25X0FNY5XIC:37M28K1J0RJEHTKRD97HFHRRPSFAJU","1",6,6,2,"50","<p style=""font-size:100px""><b>b</b></p><p style=""position: absolute; top: 30px; right: 30px; text-align:right; font-size:50px"""">N = 2</p>","b",0,NA,NA,0,"agree",17,15,18,16,17,"25","male","good","Slight Agreement","Slight Disagreement","Slight Disagreement","Slight Disagreement","Slight Agreement","Moderate Agreement","Slight Agreement","Moderate Disagreement","Moderate Disagreement","Moderate Disagreement","Strong Disagreement","Moderate Disagreement","Slight Agreement","Slight Agreement","Slight Agreement","Strong Disagreement","Strong Agreement","Strong Agreement"
"103","AC25X0FNY5XIC:37M28K1J0RJEHTKRD97HFHRRPSFAJU","1",6,7,2,"50","<p style=""font-size:100px""><b>V</b></p><p style=""position: absolute; top: 30px; right: 30px; text-align:right; font-size:50px"""">N = 2</p>","V",0,NA,NA,0,"agree",17,15,18,16,17,"25","male","good","Slight Agreement","Slight Disagreement","Slight Disagreement","Slight Disagreement","Slight Agreement","Moderate Agreement","Slight Agreement","Moderate Disagreement","Moderate Disagreement","Moderate Disagreement","Strong Disagreement","Moderate Disagreement","Slight Agreement","Slight Agreement","Slight Agreement","Strong Disagreement","Strong Agreement","Strong Agreement"
"104","AC25X0FNY5XIC:37M28K1J0RJEHTKRD97HFHRRPSFAJU","1",6,8,2,"50","<p style=""font-size:100px""><b>b</b></p><p style=""position: absolute; top: 30px; right: 30px; text-align:right; font-size:50px"""">N = 2</p>","b",0,NA,NA,0,"agree",17,15,18,16,17,"25","male","good","Slight Agreement","Slight Disagreement","Slight Disagreement","Slight Disagreement","Slight Agreement","Moderate Agreement","Slight Agreement","Moderate Disagreement","Moderate Disagreement","Moderate Disagreement","Strong Disagreement","Moderate Disagreement","Slight Agreement","Slight Agreement","Slight Agreement","Strong Disagreement","Strong Agreement","Strong Agreement"
"105","AC25X0FNY5XIC:37M28K1J0RJEHTKRD97HFHRRPSFAJU","1",6,9,2,"50","<p style=""font-size:100px""><b>b</b></p><p style=""position: absolute; top: 30px; right: 30px; text-align:right; font-size:50px"""">N = 2</p>","b",0,NA,NA,0,"agree",17,15,18,16,17,"25","male","good","Slight Agreement","Slight Disagreement","Slight Disagreement","Slight Disagreement","Slight Agreement","Moderate Agreement","Slight Agreement","Moderate Disagreement","Moderate Disagreement","Moderate Disagreement","Strong Disagreement","Moderate Disagreement","Slight Agreement","Slight Agreement","Slight Agreement","Strong Disagreement","Strong Agreement","Strong Agreement"
"106","AC25X0FNY5XIC:37M28K1J0RJEHTKRD97HFHRRPSFAJU","1",6,10,2,"50","<p style=""font-size:100px""><b>v</b></p><p style=""position: absolute; top: 30px; right: 30px; text-align:right; font-size:50px"""">N = 2</p>","v",0,NA,NA,0,"agree",17,15,18,16,17,"25","male","good","Slight Agreement","Slight Disagreement","Slight Disagreement","Slight Disagreement","Slight Agreement","Moderate Agreement","Slight Agreement","Moderate Disagreement","Moderate Disagreement","Moderate Disagreement","Strong Disagreement","Moderate Disagreement","Slight Agreement","Slight Agreement","Slight Agreement","Strong Disagreement","Strong Agreement","Strong Agreement"
"107","AC25X0FNY5XIC:37M28K1J0RJEHTKRD97HFHRRPSFAJU","1",6,11,2,"50","<p style=""font-size:100px""><b>b</b></p><p style=""position: absolute; top: 30px; right: 30px; text-align:right; font-size:50px"""">N = 2</p>","b",0,NA,NA,0,"agree",17,15,18,16,17,"25","male","good","Slight Agreement","Slight Disagreement","Slight Disagreement","Slight Disagreement","Slight Agreement","Moderate Agreement","Slight Agreement","Moderate Disagreement","Moderate Disagreement","Moderate Disagreement","Strong Disagreement","Moderate Disagreement","Slight Agreement","Slight Agreement","Slight Agreement","Strong Disagreement","Strong Agreement","Strong Agreement"
"108","AC25X0FNY5XIC:37M28K1J0RJEHTKRD97HFHRRPSFAJU","1",6,12,2,"50","<p style=""font-size:100px""><b>v</b></p><p style=""position: absolute; top: 30px; right: 30px; text-align:right; font-size:50px"""">N = 2</p>","v",0,NA,NA,0,"agree",17,15,18,16,17,"25","male","good","Slight Agreement","Slight Disagreement","Slight Disagreement","Slight Disagreement","Slight Agreement","Moderate Agreement","Slight Agreement","Moderate Disagreement","Moderate Disagreement","Moderate Disagreement","Strong Disagreement","Moderate Disagreement","Slight Agreement","Slight Agreement","Slight Agreement","Strong Disagreement","Strong Agreement","Strong Agreement"
"109","AC25X0FNY5XIC:37M28K1J0RJEHTKRD97HFHRRPSFAJU","2",7,1,2,"50","<p style=""font-size:100px""><b>p</b></p><p style=""position: absolute; top: 30px; right: 30px; text-align:right; font-size:50px"""">N = 2</p>","p",0,NA,NA,0,"agree",18,17,17,18,19,"25","male","good","Slight Agreement","Slight Disagreement","Slight Disagreement","Slight Disagreement","Slight Agreement","Moderate Agreement","Slight Agreement","Moderate Disagreement","Moderate Disagreement","Moderate Disagreement","Strong Disagreement","Moderate Disagreement","Slight Agreement","Slight Agreement","Slight Agreement","Strong Disagreement","Strong Agreement","Strong Agreement"
"110","AC25X0FNY5XIC:37M28K1J0RJEHTKRD97HFHRRPSFAJU","2",7,2,2,"50","<p style=""font-size:100px""><b>T</b></p><p style=""position: absolute; top: 30px; right: 30px; text-align:right; font-size:50px"""">N = 2</p>","T",0,NA,NA,0,"agree",18,17,17,18,19,"25","male","good","Slight Agreement","Slight Disagreement","Slight Disagreement","Slight Disagreement","Slight Agreement","Moderate Agreement","Slight Agreement","Moderate Disagreement","Moderate Disagreement","Moderate Disagreement","Strong Disagreement","Moderate Disagreement","Slight Agreement","Slight Agreement","Slight Agreement","Strong Disagreement","Strong Agreement","Strong Agreement"
"111","AC25X0FNY5XIC:37M28K1J0RJEHTKRD97HFHRRPSFAJU","2",7,3,2,"50","<p style=""font-size:100px""><b>p</b></p><p style=""position: absolute; top: 30px; right: 30px; text-align:right; font-size:50px"""">N = 2</p>","p",0,NA,NA,0,"agree",18,17,17,18,19,"25","male","good","Slight Agreement","Slight Disagreement","Slight Disagreement","Slight Disagreement","Slight Agreement","Moderate Agreement","Slight Agreement","Moderate Disagreement","Moderate Disagreement","Moderate Disagreement","Strong Disagreement","Moderate Disagreement","Slight Agreement","Slight Agreement","Slight Agreement","Strong Disagreement","Strong Agreement","Strong Agreement"
"112","AC25X0FNY5XIC:37M28K1J0RJEHTKRD97HFHRRPSFAJU","2",7,4,2,"50","<p style=""font-size:100px""><b>T</b></p><p style=""position: absolute; top: 30px; right: 30px; text-align:right; font-size:50px"""">N = 2</p>","T",0,NA,NA,0,"agree",18,17,17,18,19,"25","male","good","Slight Agreement","Slight Disagreement","Slight Disagreement","Slight Disagreement","Slight Agreement","Moderate Agreement","Slight Agreement","Moderate Disagreement","Moderate Disagreement","Moderate Disagreement","Strong Disagreement","Moderate Disagreement","Slight Agreement","Slight Agreement","Slight Agreement","Strong Disagreement","Strong Agreement","Strong Agreement"
"113","AC25X0FNY5XIC:37M28K1J0RJEHTKRD97HFHRRPSFAJU","2",7,5,2,"50","<p style=""font-size:100px""><b>T</b></p><p style=""position: absolute; top: 30px; right: 30px; text-align:right; font-size:50px"""">N = 2</p>","T",0,NA,NA,0,"agree",18,17,17,18,19,"25","male","good","Slight Agreement","Slight Disagreement","Slight Disagreement","Slight Disagreement","Slight Agreement","Moderate Agreement","Slight Agreement","Moderate Disagreement","Moderate Disagreement","Moderate Disagreement","Strong Disagreement","Moderate Disagreement","Slight Agreement","Slight Agreement","Slight Agreement","Strong Disagreement","Strong Agreement","Strong Agreement"
"114","AC25X0FNY5XIC:37M28K1J0RJEHTKRD97HFHRRPSFAJU","2",7,6,2,"50","<p style=""font-size:100px""><b>p</b></p><p style=""position: absolute; top: 30px; right: 30px; text-align:right; font-size:50px"""">N = 2</p>","p",0,NA,NA,0,"agree",18,17,17,18,19,"25","male","good","Slight Agreement","Slight Disagreement","Slight Disagreement","Slight Disagreement","Slight Agreement","Moderate Agreement","Slight Agreement","Moderate Disagreement","Moderate Disagreement","Moderate Disagreement","Strong Disagreement","Moderate Disagreement","Slight Agreement","Slight Agreement","Slight Agreement","Strong Disagreement","Strong Agreement","Strong Agreement"
"115","AC25X0FNY5XIC:37M28K1J0RJEHTKRD97HFHRRPSFAJU","2",7,7,2,"50","<p style=""font-size:100px""><b>T</b></p><p style=""position: absolute; top: 30px; right: 30px; text-align:right; font-size:50px"""">N = 2</p>","T",0,NA,NA,0,"agree",18,17,17,18,19,"25","male","good","Slight Agreement","Slight Disagreement","Slight Disagreement","Slight Disagreement","Slight Agreement","Moderate Agreement","Slight Agreement","Moderate Disagreement","Moderate Disagreement","Moderate Disagreement","Strong Disagreement","Moderate Disagreement","Slight Agreement","Slight Agreement","Slight Agreement","Strong Disagreement","Strong Agreement","Strong Agreement"
"116","AC25X0FNY5XIC:37M28K1J0RJEHTKRD97HFHRRPSFAJU","2",7,8,2,"50","<p style=""font-size:100px""><b>p</b></p><p style=""position: absolute; top: 30px; right: 30px; text-align:right; font-size:50px"""">N = 2</p>","p",0,NA,NA,0,"agree",18,17,17,18,19,"25","male","good","Slight Agreement","Slight Disagreement","Slight Disagreement","Slight Disagreement","Slight Agreement","Moderate Agreement","Slight Agreement","Moderate Disagreement","Moderate Disagreement","Moderate Disagreement","Strong Disagreement","Moderate Disagreement","Slight Agreement","Slight Agreement","Slight Agreement","Strong Disagreement","Strong Agreement","Strong Agreement"
"117","AC25X0FNY5XIC:37M28K1J0RJEHTKRD97HFHRRPSFAJU","2",7,9,2,"50","<p style=""font-size:100px""><b>B</b></p><p style=""position: absolute; top: 30px; right: 30px; text-align:right; font-size:50px"""">N = 2</p>","B",0,NA,NA,0,"agree",18,17,17,18,19,"25","male","good","Slight Agreement","Slight Disagreement","Slight Disagreement","Slight Disagreement","Slight Agreement","Moderate Agreement","Slight Agreement","Moderate Disagreement","Moderate Disagreement","Moderate Disagreement","Strong Disagreement","Moderate Disagreement","Slight Agreement","Slight Agreement","Slight Agreement","Strong Disagreement","Strong Agreement","Strong Agreement"
"118","AC25X0FNY5XIC:37M28K1J0RJEHTKRD97HFHRRPSFAJU","2",7,10,2,"50","<p style=""font-size:100px""><b>T</b></p><p style=""position: absolute; top: 30px; right: 30px; text-align:right; font-size:50px"""">N = 2</p>","T",0,NA,NA,0,"agree",18,17,17,18,19,"25","male","good","Slight Agreement","Slight Disagreement","Slight Disagreement","Slight Disagreement","Slight Agreement","Moderate Agreement","Slight Agreement","Moderate Disagreement","Moderate Disagreement","Moderate Disagreement","Strong Disagreement","Moderate Disagreement","Slight Agreement","Slight Agreement","Slight Agreement","Strong Disagreement","Strong Agreement","Strong Agreement"
"119","AC25X0FNY5XIC:37M28K1J0RJEHTKRD97HFHRRPSFAJU","2",7,11,2,"50","<p style=""font-size:100px""><b>d</b></p><p style=""position: absolute; top: 30px; right: 30px; text-align:right; font-size:50px"""">N = 2</p>","d",0,NA,NA,0,"agree",18,17,17,18,19,"25","male","good","Slight Agreement","Slight Disagreement","Slight Disagreement","Slight Disagreement","Slight Agreement","Moderate Agreement","Slight Agreement","Moderate Disagreement","Moderate Disagreement","Moderate Disagreement","Strong Disagreement","Moderate Disagreement","Slight Agreement","Slight Agreement","Slight Agreement","Strong Disagreement","Strong Agreement","Strong Agreement"
"120","AC25X0FNY5XIC:37M28K1J0RJEHTKRD97HFHRRPSFAJU","2",7,12,2,"50","<p style=""font-size:100px""><b>g</b></p><p style=""position: absolute; top: 30px; right: 30px; text-align:right; font-size:50px"""">N = 2</p>","g",0,NA,NA,0,"agree",18,17,17,18,19,"25","male","good","Slight Agreement","Slight Disagreement","Slight Disagreement","Slight Disagreement","Slight Agreement","Moderate Agreement","Slight Agreement","Moderate Disagreement","Moderate Disagreement","Moderate Disagreement","Strong Disagreement","Moderate Disagreement","Slight Agreement","Slight Agreement","Slight Agreement","Strong Disagreement","Strong Agreement","Strong Agreement"
"121","AC25X0FNY5XIC:37M28K1J0RJEHTKRD97HFHRRPSFAJU","2",8,1,3,"50","<p style=""font-size:100px""><b>p</b></p><p style=""position: absolute; top: 30px; right: 30px; text-align:right; font-size:50px"""">N = 3</p>","p",0,NA,NA,0,"agree",16,18,19,18,17,"25","male","good","Slight Agreement","Slight Disagreement","Slight Disagreement","Slight Disagreement","Slight Agreement","Moderate Agreement","Slight Agreement","Moderate Disagreement","Moderate Disagreement","Moderate Disagreement","Strong Disagreement","Moderate Disagreement","Slight Agreement","Slight Agreement","Slight Agreement","Strong Disagreement","Strong Agreement","Strong Agreement"
"122","AC25X0FNY5XIC:37M28K1J0RJEHTKRD97HFHRRPSFAJU","2",8,2,3,"50","<p style=""font-size:100px""><b>D</b></p><p style=""position: absolute; top: 30px; right: 30px; text-align:right; font-size:50px"""">N = 3</p>","D",0,NA,NA,0,"agree",16,18,19,18,17,"25","male","good","Slight Agreement","Slight Disagreement","Slight Disagreement","Slight Disagreement","Slight Agreement","Moderate Agreement","Slight Agreement","Moderate Disagreement","Moderate Disagreement","Moderate Disagreement","Strong Disagreement","Moderate Disagreement","Slight Agreement","Slight Agreement","Slight Agreement","Strong Disagreement","Strong Agreement","Strong Agreement"
"123","AC25X0FNY5XIC:37M28K1J0RJEHTKRD97HFHRRPSFAJU","2",8,3,3,"50","<p style=""font-size:100px""><b>b</b></p><p style=""position: absolute; top: 30px; right: 30px; text-align:right; font-size:50px"""">N = 3</p>","b",0,NA,NA,0,"agree",16,18,19,18,17,"25","male","good","Slight Agreement","Slight Disagreement","Slight Disagreement","Slight Disagreement","Slight Agreement","Moderate Agreement","Slight Agreement","Moderate Disagreement","Moderate Disagreement","Moderate Disagreement","Strong Disagreement","Moderate Disagreement","Slight Agreement","Slight Agreement","Slight Agreement","Strong Disagreement","Strong Agreement","Strong Agreement"
"124","AC25X0FNY5XIC:37M28K1J0RJEHTKRD97HFHRRPSFAJU","2",8,4,3,"50","<p style=""font-size:100px""><b>V</b></p><p style=""position: absolute; top: 30px; right: 30px; text-align:right; font-size:50px"""">N = 3</p>","V",0,NA,NA,0,"agree",16,18,19,18,17,"25","male","good","Slight Agreement","Slight Disagreement","Slight Disagreement","Slight Disagreement","Slight Agreement","Moderate Agreement","Slight Agreement","Moderate Disagreement","Moderate Disagreement","Moderate Disagreement","Strong Disagreement","Moderate Disagreement","Slight Agreement","Slight Agreement","Slight Agreement","Strong Disagreement","Strong Agreement","Strong Agreement"
"125","AC25X0FNY5XIC:37M28K1J0RJEHTKRD97HFHRRPSFAJU","2",8,5,3,"50","<p style=""font-size:100px""><b>D</b></p><p style=""position: absolute; top: 30px; right: 30px; text-align:right; font-size:50px"""">N = 3</p>","D",0,NA,NA,0,"agree",16,18,19,18,17,"25","male","good","Slight Agreement","Slight Disagreement","Slight Disagreement","Slight Disagreement","Slight Agreement","Moderate Agreement","Slight Agreement","Moderate Disagreement","Moderate Disagreement","Moderate Disagreement","Strong Disagreement","Moderate Disagreement","Slight Agreement","Slight Agreement","Slight Agreement","Strong Disagreement","Strong Agreement","Strong Agreement"
"126","AC25X0FNY5XIC:37M28K1J0RJEHTKRD97HFHRRPSFAJU","2",8,6,3,"50","<p style=""font-size:100px""><b>D</b></p><p style=""position: absolute; top: 30px; right: 30px; text-align:right; font-size:50px"""">N = 3</p>","D",0,NA,NA,0,"agree",16,18,19,18,17,"25","male","good","Slight Agreement","Slight Disagreement","Slight Disagreement","Slight Disagreement","Slight Agreement","Moderate Agreement","Slight Agreement","Moderate Disagreement","Moderate Disagreement","Moderate Disagreement","Strong Disagreement","Moderate Disagreement","Slight Agreement","Slight Agreement","Slight Agreement","Strong Disagreement","Strong Agreement","Strong Agreement"
"127","AC25X0FNY5XIC:37M28K1J0RJEHTKRD97HFHRRPSFAJU","2",8,7,3,"50","<p style=""font-size:100px""><b>p</b></p><p style=""position: absolute; top: 30px; right: 30px; text-align:right; font-size:50px"""">N = 3</p>","p",0,NA,NA,0,"agree",16,18,19,18,17,"25","male","good","Slight Agreement","Slight Disagreement","Slight Disagreement","Slight Disagreement","Slight Agreement","Moderate Agreement","Slight Agreement","Moderate Disagreement","Moderate Disagreement","Moderate Disagreement","Strong Disagreement","Moderate Disagreement","Slight Agreement","Slight Agreement","Slight Agreement","Strong Disagreement","Strong Agreement","Strong Agreement"
"128","AC25X0FNY5XIC:37M28K1J0RJEHTKRD97HFHRRPSFAJU","2",8,8,3,"50","<p style=""font-size:100px""><b>D</b></p><p style=""position: absolute; top: 30px; right: 30px; text-align:right; font-size:50px"""">N = 3</p>","D",0,NA,NA,0,"agree",16,18,19,18,17,"25","male","good","Slight Agreement","Slight Disagreement","Slight Disagreement","Slight Disagreement","Slight Agreement","Moderate Agreement","Slight Agreement","Moderate Disagreement","Moderate Disagreement","Moderate Disagreement","Strong Disagreement","Moderate Disagreement","Slight Agreement","Slight Agreement","Slight Agreement","Strong Disagreement","Strong Agreement","Strong Agreement"
"129","AC25X0FNY5XIC:37M28K1J0RJEHTKRD97HFHRRPSFAJU","2",8,9,3,"50","<p style=""font-size:100px""><b>b</b></p><p style=""position: absolute; top: 30px; right: 30px; text-align:right; font-size:50px"""">N = 3</p>","b",0,NA,NA,0,"agree",16,18,19,18,17,"25","male","good","Slight Agreement","Slight Disagreement","Slight Disagreement","Slight Disagreement","Slight Agreement","Moderate Agreement","Slight Agreement","Moderate Disagreement","Moderate Disagreement","Moderate Disagreement","Strong Disagreement","Moderate Disagreement","Slight Agreement","Slight Agreement","Slight Agreement","Strong Disagreement","Strong Agreement","Strong Agreement"
"130","AC25X0FNY5XIC:37M28K1J0RJEHTKRD97HFHRRPSFAJU","2",8,10,3,"50","<p style=""font-size:100px""><b>p</b></p><p style=""position: absolute; top: 30px; right: 30px; text-align:right; font-size:50px"""">N = 3</p>","p",0,NA,NA,0,"agree",16,18,19,18,17,"25","male","good","Slight Agreement","Slight Disagreement","Slight Disagreement","Slight Disagreement","Slight Agreement","Moderate Agreement","Slight Agreement","Moderate Disagreement","Moderate Disagreement","Moderate Disagreement","Strong Disagreement","Moderate Disagreement","Slight Agreement","Slight Agreement","Slight Agreement","Strong Disagreement","Strong Agreement","Strong Agreement"
"131","AC25X0FNY5XIC:37M28K1J0RJEHTKRD97HFHRRPSFAJU","2",8,11,3,"50","<p style=""font-size:100px""><b>D</b></p><p style=""position: absolute; top: 30px; right: 30px; text-align:right; font-size:50px"""">N = 3</p>","D",0,NA,NA,0,"agree",16,18,19,18,17,"25","male","good","Slight Agreement","Slight Disagreement","Slight Disagreement","Slight Disagreement","Slight Agreement","Moderate Agreement","Slight Agreement","Moderate Disagreement","Moderate Disagreement","Moderate Disagreement","Strong Disagreement","Moderate Disagreement","Slight Agreement","Slight Agreement","Slight Agreement","Strong Disagreement","Strong Agreement","Strong Agreement"
"132","AC25X0FNY5XIC:37M28K1J0RJEHTKRD97HFHRRPSFAJU","2",8,12,3,"50","<p style=""font-size:100px""><b>t</b></p><p style=""position: absolute; top: 30px; right: 30px; text-align:right; font-size:50px"""">N = 3</p>","t",0,NA,NA,0,"agree",16,18,19,18,17,"25","male","good","Slight Agreement","Slight Disagreement","Slight Disagreement","Slight Disagreement","Slight Agreement","Moderate Agreement","Slight Agreement","Moderate Disagreement","Moderate Disagreement","Moderate Disagreement","Strong Disagreement","Moderate Disagreement","Slight Agreement","Slight Agreement","Slight Agreement","Strong Disagreement","Strong Agreement","Strong Agreement"
"133","AC25X0FNY5XIC:37M28K1J0RJEHTKRD97HFHRRPSFAJU","2",9,1,1,"5","<p style=""font-size:100px""><b>t</b></p><p style=""position: absolute; top: 30px; right: 30px; text-align:right; font-size:50px"""">N = 1</p>","t",0,NA,NA,0,"agree",16,15,7,7,20,"25","male","good","Slight Agreement","Slight Disagreement","Slight Disagreement","Slight Disagreement","Slight Agreement","Moderate Agreement","Slight Agreement","Moderate Disagreement","Moderate Disagreement","Moderate Disagreement","Strong Disagreement","Moderate Disagreement","Slight Agreement","Slight Agreement","Slight Agreement","Strong Disagreement","Strong Agreement","Strong Agreement"
"134","AC25X0FNY5XIC:37M28K1J0RJEHTKRD97HFHRRPSFAJU","2",9,2,1,"5","<p style=""font-size:100px""><b>G</b></p><p style=""position: absolute; top: 30px; right: 30px; text-align:right; font-size:50px"""">N = 1</p>","G",0,NA,NA,0,"agree",16,15,7,7,20,"25","male","good","Slight Agreement","Slight Disagreement","Slight Disagreement","Slight Disagreement","Slight Agreement","Moderate Agreement","Slight Agreement","Moderate Disagreement","Moderate Disagreement","Moderate Disagreement","Strong Disagreement","Moderate Disagreement","Slight Agreement","Slight Agreement","Slight Agreement","Strong Disagreement","Strong Agreement","Strong Agreement"
"135","AC25X0FNY5XIC:37M28K1J0RJEHTKRD97HFHRRPSFAJU","2",9,3,1,"5","<p style=""font-size:100px""><b>G</b></p><p style=""position: absolute; top: 30px; right: 30px; text-align:right; font-size:50px"""">N = 1</p>","G",0,NA,NA,0,"agree",16,15,7,7,20,"25","male","good","Slight Agreement","Slight Disagreement","Slight Disagreement","Slight Disagreement","Slight Agreement","Moderate Agreement","Slight Agreement","Moderate Disagreement","Moderate Disagreement","Moderate Disagreement","Strong Disagreement","Moderate Disagreement","Slight Agreement","Slight Agreement","Slight Agreement","Strong Disagreement","Strong Agreement","Strong Agreement"
"136","AC25X0FNY5XIC:37M28K1J0RJEHTKRD97HFHRRPSFAJU","2",9,4,1,"5","<p style=""font-size:100px""><b>T</b></p><p style=""position: absolute; top: 30px; right: 30px; text-align:right; font-size:50px"""">N = 1</p>","T",0,NA,NA,0,"agree",16,15,7,7,20,"25","male","good","Slight Agreement","Slight Disagreement","Slight Disagreement","Slight Disagreement","Slight Agreement","Moderate Agreement","Slight Agreement","Moderate Disagreement","Moderate Disagreement","Moderate Disagreement","Strong Disagreement","Moderate Disagreement","Slight Agreement","Slight Agreement","Slight Agreement","Strong Disagreement","Strong Agreement","Strong Agreement"
"137","AC25X0FNY5XIC:37M28K1J0RJEHTKRD97HFHRRPSFAJU","2",9,5,1,"5","<p style=""font-size:100px""><b>V</b></p><p style=""position: absolute; top: 30px; right: 30px; text-align:right; font-size:50px"""">N = 1</p>","V",0,NA,NA,0,"agree",16,15,7,7,20,"25","male","good","Slight Agreement","Slight Disagreement","Slight Disagreement","Slight Disagreement","Slight Agreement","Moderate Agreement","Slight Agreement","Moderate Disagreement","Moderate Disagreement","Moderate Disagreement","Strong Disagreement","Moderate Disagreement","Slight Agreement","Slight Agreement","Slight Agreement","Strong Disagreement","Strong Agreement","Strong Agreement"
"138","AC25X0FNY5XIC:37M28K1J0RJEHTKRD97HFHRRPSFAJU","2",9,6,1,"5","<p style=""font-size:100px""><b>V</b></p><p style=""position: absolute; top: 30px; right: 30px; text-align:right; font-size:50px"""">N = 1</p>","V",0,NA,NA,0,"agree",16,15,7,7,20,"25","male","good","Slight Agreement","Slight Disagreement","Slight Disagreement","Slight Disagreement","Slight Agreement","Moderate Agreement","Slight Agreement","Moderate Disagreement","Moderate Disagreement","Moderate Disagreement","Strong Disagreement","Moderate Disagreement","Slight Agreement","Slight Agreement","Slight Agreement","Strong Disagreement","Strong Agreement","Strong Agreement"
"139","AC25X0FNY5XIC:37M28K1J0RJEHTKRD97HFHRRPSFAJU","2",9,7,1,"5","<p style=""font-size:100px""><b>D</b></p><p style=""position: absolute; top: 30px; right: 30px; text-align:right; font-size:50px"""">N = 1</p>","D",0,NA,NA,0,"agree",16,15,7,7,20,"25","male","good","Slight Agreement","Slight Disagreement","Slight Disagreement","Slight Disagreement","Slight Agreement","Moderate Agreement","Slight Agreement","Moderate Disagreement","Moderate Disagreement","Moderate Disagreement","Strong Disagreement","Moderate Disagreement","Slight Agreement","Slight Agreement","Slight Agreement","Strong Disagreement","Strong Agreement","Strong Agreement"
"140","AC25X0FNY5XIC:37M28K1J0RJEHTKRD97HFHRRPSFAJU","2",9,8,1,"5","<p style=""font-size:100px""><b>D</b></p><p style=""position: absolute; top: 30px; right: 30px; text-align:right; font-size:50px"""">N = 1</p>","D",0,NA,NA,0,"agree",16,15,7,7,20,"25","male","good","Slight Agreement","Slight Disagreement","Slight Disagreement","Slight Disagreement","Slight Agreement","Moderate Agreement","Slight Agreement","Moderate Disagreement","Moderate Disagreement","Moderate Disagreement","Strong Disagreement","Moderate Disagreement","Slight Agreement","Slight Agreement","Slight Agreement","Strong Disagreement","Strong Agreement","Strong Agreement"
"141","AC25X0FNY5XIC:37M28K1J0RJEHTKRD97HFHRRPSFAJU","2",9,9,1,"5","<p style=""font-size:100px""><b>D</b></p><p style=""position: absolute; top: 30px; right: 30px; text-align:right; font-size:50px"""">N = 1</p>","D",0,NA,NA,0,"agree",16,15,7,7,20,"25","male","good","Slight Agreement","Slight Disagreement","Slight Disagreement","Slight Disagreement","Slight Agreement","Moderate Agreement","Slight Agreement","Moderate Disagreement","Moderate Disagreement","Moderate Disagreement","Strong Disagreement","Moderate Disagreement","Slight Agreement","Slight Agreement","Slight Agreement","Strong Disagreement","Strong Agreement","Strong Agreement"
"142","AC25X0FNY5XIC:37M28K1J0RJEHTKRD97HFHRRPSFAJU","2",9,10,1,"5","<p style=""font-size:100px""><b>p</b></p><p style=""position: absolute; top: 30px; right: 30px; text-align:right; font-size:50px"""">N = 1</p>","p",0,NA,NA,0,"agree",16,15,7,7,20,"25","male","good","Slight Agreement","Slight Disagreement","Slight Disagreement","Slight Disagreement","Slight Agreement","Moderate Agreement","Slight Agreement","Moderate Disagreement","Moderate Disagreement","Moderate Disagreement","Strong Disagreement","Moderate Disagreement","Slight Agreement","Slight Agreement","Slight Agreement","Strong Disagreement","Strong Agreement","Strong Agreement"
"143","AC25X0FNY5XIC:37M28K1J0RJEHTKRD97HFHRRPSFAJU","2",9,11,1,"5","<p style=""font-size:100px""><b>v</b></p><p style=""position: absolute; top: 30px; right: 30px; text-align:right; font-size:50px"""">N = 1</p>","v",0,NA,NA,0,"agree",16,15,7,7,20,"25","male","good","Slight Agreement","Slight Disagreement","Slight Disagreement","Slight Disagreement","Slight Agreement","Moderate Agreement","Slight Agreement","Moderate Disagreement","Moderate Disagreement","Moderate Disagreement","Strong Disagreement","Moderate Disagreement","Slight Agreement","Slight Agreement","Slight Agreement","Strong Disagreement","Strong Agreement","Strong Agreement"
"144","AC25X0FNY5XIC:37M28K1J0RJEHTKRD97HFHRRPSFAJU","2",9,12,1,"5","<p style=""font-size:100px""><b>G</b></p><p style=""position: absolute; top: 30px; right: 30px; text-align:right; font-size:50px"""">N = 1</p>","G",0,NA,NA,0,"agree",16,15,7,7,20,"25","male","good","Slight Agreement","Slight Disagreement","Slight Disagreement","Slight Disagreement","Slight Agreement","Moderate Agreement","Slight Agreement","Moderate Disagreement","Moderate Disagreement","Moderate Disagreement","Strong Disagreement","Moderate Disagreement","Slight Agreement","Slight Agreement","Slight Agreement","Strong Disagreement","Strong Agreement","Strong Agreement"
"145","AC25X0FNY5XIC:37M28K1J0RJEHTKRD97HFHRRPSFAJU","2",10,1,3,"5","<p style=""font-size:100px""><b>D</b></p><p style=""position: absolute; top: 30px; right: 30px; text-align:right; font-size:50px"""">N = 3</p>","D",0,NA,NA,0,"agree",16,18,16,14,18,"25","male","good","Slight Agreement","Slight Disagreement","Slight Disagreement","Slight Disagreement","Slight Agreement","Moderate Agreement","Slight Agreement","Moderate Disagreement","Moderate Disagreement","Moderate Disagreement","Strong Disagreement","Moderate Disagreement","Slight Agreement","Slight Agreement","Slight Agreement","Strong Disagreement","Strong Agreement","Strong Agreement"
"146","AC25X0FNY5XIC:37M28K1J0RJEHTKRD97HFHRRPSFAJU","2",10,2,3,"5","<p style=""font-size:100px""><b>b</b></p><p style=""position: absolute; top: 30px; right: 30px; text-align:right; font-size:50px"""">N = 3</p>","b",0,NA,NA,0,"agree",16,18,16,14,18,"25","male","good","Slight Agreement","Slight Disagreement","Slight Disagreement","Slight Disagreement","Slight Agreement","Moderate Agreement","Slight Agreement","Moderate Disagreement","Moderate Disagreement","Moderate Disagreement","Strong Disagreement","Moderate Disagreement","Slight Agreement","Slight Agreement","Slight Agreement","Strong Disagreement","Strong Agreement","Strong Agreement"
"147","AC25X0FNY5XIC:37M28K1J0RJEHTKRD97HFHRRPSFAJU","2",10,3,3,"5","<p style=""font-size:100px""><b>B</b></p><p style=""position: absolute; top: 30px; right: 30px; text-align:right; font-size:50px"""">N = 3</p>","B",0,NA,NA,0,"agree",16,18,16,14,18,"25","male","good","Slight Agreement","Slight Disagreement","Slight Disagreement","Slight Disagreement","Slight Agreement","Moderate Agreement","Slight Agreement","Moderate Disagreement","Moderate Disagreement","Moderate Disagreement","Strong Disagreement","Moderate Disagreement","Slight Agreement","Slight Agreement","Slight Agreement","Strong Disagreement","Strong Agreement","Strong Agreement"
"148","AC25X0FNY5XIC:37M28K1J0RJEHTKRD97HFHRRPSFAJU","2",10,4,3,"5","<p style=""font-size:100px""><b>T</b></p><p style=""position: absolute; top: 30px; right: 30px; text-align:right; font-size:50px"""">N = 3</p>","T",0,NA,NA,0,"agree",16,18,16,14,18,"25","male","good","Slight Agreement","Slight Disagreement","Slight Disagreement","Slight Disagreement","Slight Agreement","Moderate Agreement","Slight Agreement","Moderate Disagreement","Moderate Disagreement","Moderate Disagreement","Strong Disagreement","Moderate Disagreement","Slight Agreement","Slight Agreement","Slight Agreement","Strong Disagreement","Strong Agreement","Strong Agreement"
"149","AC25X0FNY5XIC:37M28K1J0RJEHTKRD97HFHRRPSFAJU","2",10,5,3,"5","<p style=""font-size:100px""><b>b</b></p><p style=""position: absolute; top: 30px; right: 30px; text-align:right; font-size:50px"""">N = 3</p>","b",0,NA,NA,0,"agree",16,18,16,14,18,"25","male","good","Slight Agreement","Slight Disagreement","Slight Disagreement","Slight Disagreement","Slight Agreement","Moderate Agreement","Slight Agreement","Moderate Disagreement","Moderate Disagreement","Moderate Disagreement","Strong Disagreement","Moderate Disagreement","Slight Agreement","Slight Agreement","Slight Agreement","Strong Disagreement","Strong Agreement","Strong Agreement"
"150","AC25X0FNY5XIC:37M28K1J0RJEHTKRD97HFHRRPSFAJU","2",10,6,3,"5","<p style=""font-size:100px""><b>V</b></p><p style=""position: absolute; top: 30px; right: 30px; text-align:right; font-size:50px"""">N = 3</p>","V",0,NA,NA,0,"agree",16,18,16,14,18,"25","male","good","Slight Agreement","Slight Disagreement","Slight Disagreement","Slight Disagreement","Slight Agreement","Moderate Agreement","Slight Agreement","Moderate Disagreement","Moderate Disagreement","Moderate Disagreement","Strong Disagreement","Moderate Disagreement","Slight Agreement","Slight Agreement","Slight Agreement","Strong Disagreement","Strong Agreement","Strong Agreement"
"151","AC25X0FNY5XIC:37M28K1J0RJEHTKRD97HFHRRPSFAJU","2",10,7,3,"5","<p style=""font-size:100px""><b>T</b></p><p style=""position: absolute; top: 30px; right: 30px; text-align:right; font-size:50px"""">N = 3</p>","T",0,NA,NA,0,"agree",16,18,16,14,18,"25","male","good","Slight Agreement","Slight Disagreement","Slight Disagreement","Slight Disagreement","Slight Agreement","Moderate Agreement","Slight Agreement","Moderate Disagreement","Moderate Disagreement","Moderate Disagreement","Strong Disagreement","Moderate Disagreement","Slight Agreement","Slight Agreement","Slight Agreement","Strong Disagreement","Strong Agreement","Strong Agreement"
"152","AC25X0FNY5XIC:37M28K1J0RJEHTKRD97HFHRRPSFAJU","2",10,8,3,"5","<p style=""font-size:100px""><b>t</b></p><p style=""position: absolute; top: 30px; right: 30px; text-align:right; font-size:50px"""">N = 3</p>","t",0,NA,NA,0,"agree",16,18,16,14,18,"25","male","good","Slight Agreement","Slight Disagreement","Slight Disagreement","Slight Disagreement","Slight Agreement","Moderate Agreement","Slight Agreement","Moderate Disagreement","Moderate Disagreement","Moderate Disagreement","Strong Disagreement","Moderate Disagreement","Slight Agreement","Slight Agreement","Slight Agreement","Strong Disagreement","Strong Agreement","Strong Agreement"
