"","subject","run","block","trial","N","reward","stimulus","cue","isTarget","key_press","rt","acc","debrief","performance","frustration","demand","temporal","effort","age","gender","comments","nfc1","nfc2","nfc3","nfc4","nfc5","nfc6","nfc7","nfc8","nfc9","nfc10","nfc11","nfc12","nfc13","nfc14","nfc15","nfc16","nfc17","nfc18"
"1","A3VBUVGBQ74JJF:3J4Q2Z4UTZ9SATR794NIU704V7LQWP","practice",1,1,1,"NA","<p style=""font-size:100px""><b>p</b></p><p style=""position: absolute; top: 30px; right: 30px; text-align:right; font-size:50px"""">N = 1</p>","p",0,73,1758,1,"agree",11,16,17,13,17,"36","Male","no","Very Strong Agreement","Slight Agreement","Very Strong Agreement","Slight Agreement","Moderate Agreement","Moderate Disagreement","Very Strong Agreement","Moderate Disagreement","Slight Agreement","Very Strong Agreement","Strong Disagreement","Moderate Disagreement","Neither Agreement nor Disagreement","Slight Disagreement","Very Strong Agreement","Slight Disagreement","Moderate Agreement","Moderate Agreement"
"2","A3VBUVGBQ74JJF:3J4Q2Z4UTZ9SATR794NIU704V7LQWP","practice",1,2,1,"NA","<p style=""font-size:100px""><b>p</b></p><p style=""position: absolute; top: 30px; right: 30px; text-align:right; font-size:50px"""">N = 1</p>","p",1,69,139,1,"agree",11,16,17,13,17,"36","Male","no","Very Strong Agreement","Slight Agreement","Very Strong Agreement","Slight Agreement","Moderate Agreement","Moderate Disagreement","Very Strong Agreement","Moderate Disagreement","Slight Agreement","Very Strong Agreement","Strong Disagreement","Moderate Disagreement","Neither Agreement nor Disagreement","Slight Disagreement","Very Strong Agreement","Slight Disagreement","Moderate Agreement","Moderate Agreement"
"3","A3VBUVGBQ74JJF:3J4Q2Z4UTZ9SATR794NIU704V7LQWP","practice",1,3,1,"NA","<p style=""font-size:100px""><b>p</b></p><p style=""position: absolute; top: 30px; right: 30px; text-align:right; font-size:50px"""">N = 1</p>","p",1,73,330,0,"agree",11,16,17,13,17,"36","Male","no","Very Strong Agreement","Slight Agreement","Very Strong Agreement","Slight Agreement","Moderate Agreement","Moderate Disagreement","Very Strong Agreement","Moderate Disagreement","Slight Agreement","Very Strong Agreement","Strong Disagreement","Moderate Disagreement","Neither Agreement nor Disagreement","Slight Disagreement","Very Strong Agreement","Slight Disagreement","Moderate Agreement","Moderate Agreement"
"4","A3VBUVGBQ74JJF:3J4Q2Z4UTZ9SATR794NIU704V7LQWP","practice",1,4,1,"NA","<p style=""font-size:100px""><b>b</b></p><p style=""position: absolute; top: 30px; right: 30px; text-align:right; font-size:50px"""">N = 1</p>","b",0,69,169,0,"agree",11,16,17,13,17,"36","Male","no","Very Strong Agreement","Slight Agreement","Very Strong Agreement","Slight Agreement","Moderate Agreement","Moderate Disagreement","Very Strong Agreement","Moderate Disagreement","Slight Agreement","Very Strong Agreement","Strong Disagreement","Moderate Disagreement","Neither Agreement nor Disagreement","Slight Disagreement","Very Strong Agreement","Slight Disagreement","Moderate Agreement","Moderate Agreement"
"5","A3VBUVGBQ74JJF:3J4Q2Z4UTZ9SATR794NIU704V7LQWP","practice",1,5,1,"NA","<p style=""font-size:100px""><b>T</b></p><p style=""position: absolute; top: 30px; right: 30px; text-align:right; font-size:50px"""">N = 1</p>","T",0,69,198,0,"agree",11,16,17,13,17,"36","Male","no","Very Strong Agreement","Slight Agreement","Very Strong Agreement","Slight Agreement","Moderate Agreement","Moderate Disagreement","Very Strong Agreement","Moderate Disagreement","Slight Agreement","Very Strong Agreement","Strong Disagreement","Moderate Disagreement","Neither Agreement nor Disagreement","Slight Disagreement","Very Strong Agreement","Slight Disagreement","Moderate Agreement","Moderate Agreement"
"6","A3VBUVGBQ74JJF:3J4Q2Z4UTZ9SATR794NIU704V7LQWP","practice",1,6,1,"NA","<p style=""font-size:100px""><b>V</b></p><p style=""position: absolute; top: 30px; right: 30px; text-align:right; font-size:50px"""">N = 1</p>","V",0,69,95,0,"agree",11,16,17,13,17,"36","Male","no","Very Strong Agreement","Slight Agreement","Very Strong Agreement","Slight Agreement","Moderate Agreement","Moderate Disagreement","Very Strong Agreement","Moderate Disagreement","Slight Agreement","Very Strong Agreement","Strong Disagreement","Moderate Disagreement","Neither Agreement nor Disagreement","Slight Disagreement","Very Strong Agreement","Slight Disagreement","Moderate Agreement","Moderate Agreement"
"7","A3VBUVGBQ74JJF:3J4Q2Z4UTZ9SATR794NIU704V7LQWP","practice",1,7,1,"NA","<p style=""font-size:100px""><b>T</b></p><p style=""position: absolute; top: 30px; right: 30px; text-align:right; font-size:50px"""">N = 1</p>","T",0,69,369,0,"agree",11,16,17,13,17,"36","Male","no","Very Strong Agreement","Slight Agreement","Very Strong Agreement","Slight Agreement","Moderate Agreement","Moderate Disagreement","Very Strong Agreement","Moderate Disagreement","Slight Agreement","Very Strong Agreement","Strong Disagreement","Moderate Disagreement","Neither Agreement nor Disagreement","Slight Disagreement","Very Strong Agreement","Slight Disagreement","Moderate Agreement","Moderate Agreement"
"8","A3VBUVGBQ74JJF:3J4Q2Z4UTZ9SATR794NIU704V7LQWP","practice",1,8,1,"NA","<p style=""font-size:100px""><b>T</b></p><p style=""position: absolute; top: 30px; right: 30px; text-align:right; font-size:50px"""">N = 1</p>","T",1,73,489,0,"agree",11,16,17,13,17,"36","Male","no","Very Strong Agreement","Slight Agreement","Very Strong Agreement","Slight Agreement","Moderate Agreement","Moderate Disagreement","Very Strong Agreement","Moderate Disagreement","Slight Agreement","Very Strong Agreement","Strong Disagreement","Moderate Disagreement","Neither Agreement nor Disagreement","Slight Disagreement","Very Strong Agreement","Slight Disagreement","Moderate Agreement","Moderate Agreement"
"9","A3VBUVGBQ74JJF:3J4Q2Z4UTZ9SATR794NIU704V7LQWP","practice",1,9,1,"NA","<p style=""font-size:100px""><b>T</b></p><p style=""position: absolute; top: 30px; right: 30px; text-align:right; font-size:50px"""">N = 1</p>","T",1,73,88,0,"agree",11,16,17,13,17,"36","Male","no","Very Strong Agreement","Slight Agreement","Very Strong Agreement","Slight Agreement","Moderate Agreement","Moderate Disagreement","Very Strong Agreement","Moderate Disagreement","Slight Agreement","Very Strong Agreement","Strong Disagreement","Moderate Disagreement","Neither Agreement nor Disagreement","Slight Disagreement","Very Strong Agreement","Slight Disagreement","Moderate Agreement","Moderate Agreement"
"10","A3VBUVGBQ74JJF:3J4Q2Z4UTZ9SATR794NIU704V7LQWP","practice",1,10,1,"NA","<p style=""font-size:100px""><b>p</b></p><p style=""position: absolute; top: 30px; right: 30px; text-align:right; font-size:50px"""">N = 1</p>","p",0,73,61,1,"agree",11,16,17,13,17,"36","Male","no","Very Strong Agreement","Slight Agreement","Very Strong Agreement","Slight Agreement","Moderate Agreement","Moderate Disagreement","Very Strong Agreement","Moderate Disagreement","Slight Agreement","Very Strong Agreement","Strong Disagreement","Moderate Disagreement","Neither Agreement nor Disagreement","Slight Disagreement","Very Strong Agreement","Slight Disagreement","Moderate Agreement","Moderate Agreement"
"11","A3VBUVGBQ74JJF:3J4Q2Z4UTZ9SATR794NIU704V7LQWP","practice",1,11,1,"NA","<p style=""font-size:100px""><b>g</b></p><p style=""position: absolute; top: 30px; right: 30px; text-align:right; font-size:50px"""">N = 1</p>","g",0,69,90,0,"agree",11,16,17,13,17,"36","Male","no","Very Strong Agreement","Slight Agreement","Very Strong Agreement","Slight Agreement","Moderate Agreement","Moderate Disagreement","Very Strong Agreement","Moderate Disagreement","Slight Agreement","Very Strong Agreement","Strong Disagreement","Moderate Disagreement","Neither Agreement nor Disagreement","Slight Disagreement","Very Strong Agreement","Slight Disagreement","Moderate Agreement","Moderate Agreement"
"12","A3VBUVGBQ74JJF:3J4Q2Z4UTZ9SATR794NIU704V7LQWP","practice",1,12,1,"NA","<p style=""font-size:100px""><b>V</b></p><p style=""position: absolute; top: 30px; right: 30px; text-align:right; font-size:50px"""">N = 1</p>","V",0,73,442,1,"agree",11,16,17,13,17,"36","Male","no","Very Strong Agreement","Slight Agreement","Very Strong Agreement","Slight Agreement","Moderate Agreement","Moderate Disagreement","Very Strong Agreement","Moderate Disagreement","Slight Agreement","Very Strong Agreement","Strong Disagreement","Moderate Disagreement","Neither Agreement nor Disagreement","Slight Disagreement","Very Strong Agreement","Slight Disagreement","Moderate Agreement","Moderate Agreement"
"13","A3VBUVGBQ74JJF:3J4Q2Z4UTZ9SATR794NIU704V7LQWP","practice",2,1,2,"NA","<p style=""font-size:100px""><b>v</b></p><p style=""position: absolute; top: 30px; right: 30px; text-align:right; font-size:50px"""">N = 2</p>","v",0,73,71,1,"agree",11,16,17,13,17,"36","Male","no","Very Strong Agreement","Slight Agreement","Very Strong Agreement","Slight Agreement","Moderate Agreement","Moderate Disagreement","Very Strong Agreement","Moderate Disagreement","Slight Agreement","Very Strong Agreement","Strong Disagreement","Moderate Disagreement","Neither Agreement nor Disagreement","Slight Disagreement","Very Strong Agreement","Slight Disagreement","Moderate Agreement","Moderate Agreement"
"14","A3VBUVGBQ74JJF:3J4Q2Z4UTZ9SATR794NIU704V7LQWP","practice",2,2,2,"NA","<p style=""font-size:100px""><b>d</b></p><p style=""position: absolute; top: 30px; right: 30px; text-align:right; font-size:50px"""">N = 2</p>","d",0,73,213,1,"agree",11,16,17,13,17,"36","Male","no","Very Strong Agreement","Slight Agreement","Very Strong Agreement","Slight Agreement","Moderate Agreement","Moderate Disagreement","Very Strong Agreement","Moderate Disagreement","Slight Agreement","Very Strong Agreement","Strong Disagreement","Moderate Disagreement","Neither Agreement nor Disagreement","Slight Disagreement","Very Strong Agreement","Slight Disagreement","Moderate Agreement","Moderate Agreement"
"15","A3VBUVGBQ74JJF:3J4Q2Z4UTZ9SATR794NIU704V7LQWP","practice",2,3,2,"NA","<p style=""font-size:100px""><b>g</b></p><p style=""position: absolute; top: 30px; right: 30px; text-align:right; font-size:50px"""">N = 2</p>","g",0,73,49,1,"agree",11,16,17,13,17,"36","Male","no","Very Strong Agreement","Slight Agreement","Very Strong Agreement","Slight Agreement","Moderate Agreement","Moderate Disagreement","Very Strong Agreement","Moderate Disagreement","Slight Agreement","Very Strong Agreement","Strong Disagreement","Moderate Disagreement","Neither Agreement nor Disagreement","Slight Disagreement","Very Strong Agreement","Slight Disagreement","Moderate Agreement","Moderate Agreement"
"16","A3VBUVGBQ74JJF:3J4Q2Z4UTZ9SATR794NIU704V7LQWP","practice",2,4,2,"NA","<p style=""font-size:100px""><b>G</b></p><p style=""position: absolute; top: 30px; right: 30px; text-align:right; font-size:50px"""">N = 2</p>","G",0,73,933,1,"agree",11,16,17,13,17,"36","Male","no","Very Strong Agreement","Slight Agreement","Very Strong Agreement","Slight Agreement","Moderate Agreement","Moderate Disagreement","Very Strong Agreement","Moderate Disagreement","Slight Agreement","Very Strong Agreement","Strong Disagreement","Moderate Disagreement","Neither Agreement nor Disagreement","Slight Disagreement","Very Strong Agreement","Slight Disagreement","Moderate Agreement","Moderate Agreement"
"17","A3VBUVGBQ74JJF:3J4Q2Z4UTZ9SATR794NIU704V7LQWP","practice",2,5,2,"NA","<p style=""font-size:100px""><b>g</b></p><p style=""position: absolute; top: 30px; right: 30px; text-align:right; font-size:50px"""">N = 2</p>","g",1,73,205,0,"agree",11,16,17,13,17,"36","Male","no","Very Strong Agreement","Slight Agreement","Very Strong Agreement","Slight Agreement","Moderate Agreement","Moderate Disagreement","Very Strong Agreement","Moderate Disagreement","Slight Agreement","Very Strong Agreement","Strong Disagreement","Moderate Disagreement","Neither Agreement nor Disagreement","Slight Disagreement","Very Strong Agreement","Slight Disagreement","Moderate Agreement","Moderate Agreement"
"18","A3VBUVGBQ74JJF:3J4Q2Z4UTZ9SATR794NIU704V7LQWP","practice",2,6,2,"NA","<p style=""font-size:100px""><b>b</b></p><p style=""position: absolute; top: 30px; right: 30px; text-align:right; font-size:50px"""">N = 2</p>","b",0,73,250,1,"agree",11,16,17,13,17,"36","Male","no","Very Strong Agreement","Slight Agreement","Very Strong Agreement","Slight Agreement","Moderate Agreement","Moderate Disagreement","Very Strong Agreement","Moderate Disagreement","Slight Agreement","Very Strong Agreement","Strong Disagreement","Moderate Disagreement","Neither Agreement nor Disagreement","Slight Disagreement","Very Strong Agreement","Slight Disagreement","Moderate Agreement","Moderate Agreement"
"19","A3VBUVGBQ74JJF:3J4Q2Z4UTZ9SATR794NIU704V7LQWP","practice",2,7,2,"NA","<p style=""font-size:100px""><b>g</b></p><p style=""position: absolute; top: 30px; right: 30px; text-align:right; font-size:50px"""">N = 2</p>","g",1,73,250,0,"agree",11,16,17,13,17,"36","Male","no","Very Strong Agreement","Slight Agreement","Very Strong Agreement","Slight Agreement","Moderate Agreement","Moderate Disagreement","Very Strong Agreement","Moderate Disagreement","Slight Agreement","Very Strong Agreement","Strong Disagreement","Moderate Disagreement","Neither Agreement nor Disagreement","Slight Disagreement","Very Strong Agreement","Slight Disagreement","Moderate Agreement","Moderate Agreement"
"20","A3VBUVGBQ74JJF:3J4Q2Z4UTZ9SATR794NIU704V7LQWP","practice",2,8,2,"NA","<p style=""font-size:100px""><b>t</b></p><p style=""position: absolute; top: 30px; right: 30px; text-align:right; font-size:50px"""">N = 2</p>","t",0,73,148,1,"agree",11,16,17,13,17,"36","Male","no","Very Strong Agreement","Slight Agreement","Very Strong Agreement","Slight Agreement","Moderate Agreement","Moderate Disagreement","Very Strong Agreement","Moderate Disagreement","Slight Agreement","Very Strong Agreement","Strong Disagreement","Moderate Disagreement","Neither Agreement nor Disagreement","Slight Disagreement","Very Strong Agreement","Slight Disagreement","Moderate Agreement","Moderate Agreement"
"21","A3VBUVGBQ74JJF:3J4Q2Z4UTZ9SATR794NIU704V7LQWP","practice",2,9,2,"NA","<p style=""font-size:100px""><b>v</b></p><p style=""position: absolute; top: 30px; right: 30px; text-align:right; font-size:50px"""">N = 2</p>","v",0,73,22,1,"agree",11,16,17,13,17,"36","Male","no","Very Strong Agreement","Slight Agreement","Very Strong Agreement","Slight Agreement","Moderate Agreement","Moderate Disagreement","Very Strong Agreement","Moderate Disagreement","Slight Agreement","Very Strong Agreement","Strong Disagreement","Moderate Disagreement","Neither Agreement nor Disagreement","Slight Disagreement","Very Strong Agreement","Slight Disagreement","Moderate Agreement","Moderate Agreement"
"22","A3VBUVGBQ74JJF:3J4Q2Z4UTZ9SATR794NIU704V7LQWP","practice",2,10,2,"NA","<p style=""font-size:100px""><b>V</b></p><p style=""position: absolute; top: 30px; right: 30px; text-align:right; font-size:50px"""">N = 2</p>","V",0,73,186,1,"agree",11,16,17,13,17,"36","Male","no","Very Strong Agreement","Slight Agreement","Very Strong Agreement","Slight Agreement","Moderate Agreement","Moderate Disagreement","Very Strong Agreement","Moderate Disagreement","Slight Agreement","Very Strong Agreement","Strong Disagreement","Moderate Disagreement","Neither Agreement nor Disagreement","Slight Disagreement","Very Strong Agreement","Slight Disagreement","Moderate Agreement","Moderate Agreement"
"23","A3VBUVGBQ74JJF:3J4Q2Z4UTZ9SATR794NIU704V7LQWP","practice",2,11,2,"NA","<p style=""font-size:100px""><b>v</b></p><p style=""position: absolute; top: 30px; right: 30px; text-align:right; font-size:50px"""">N = 2</p>","v",1,73,13,0,"agree",11,16,17,13,17,"36","Male","no","Very Strong Agreement","Slight Agreement","Very Strong Agreement","Slight Agreement","Moderate Agreement","Moderate Disagreement","Very Strong Agreement","Moderate Disagreement","Slight Agreement","Very Strong Agreement","Strong Disagreement","Moderate Disagreement","Neither Agreement nor Disagreement","Slight Disagreement","Very Strong Agreement","Slight Disagreement","Moderate Agreement","Moderate Agreement"
"24","A3VBUVGBQ74JJF:3J4Q2Z4UTZ9SATR794NIU704V7LQWP","practice",2,12,2,"NA","<p style=""font-size:100px""><b>V</b></p><p style=""position: absolute; top: 30px; right: 30px; text-align:right; font-size:50px"""">N = 2</p>","V",1,73,59,0,"agree",11,16,17,13,17,"36","Male","no","Very Strong Agreement","Slight Agreement","Very Strong Agreement","Slight Agreement","Moderate Agreement","Moderate Disagreement","Very Strong Agreement","Moderate Disagreement","Slight Agreement","Very Strong Agreement","Strong Disagreement","Moderate Disagreement","Neither Agreement nor Disagreement","Slight Disagreement","Very Strong Agreement","Slight Disagreement","Moderate Agreement","Moderate Agreement"
"25","A3VBUVGBQ74JJF:3J4Q2Z4UTZ9SATR794NIU704V7LQWP","practice",3,1,3,"NA","<p style=""font-size:100px""><b>t</b></p><p style=""position: absolute; top: 30px; right: 30px; text-align:right; font-size:50px"""">N = 3</p>","t",0,73,20,1,"agree",11,16,17,13,17,"36","Male","no","Very Strong Agreement","Slight Agreement","Very Strong Agreement","Slight Agreement","Moderate Agreement","Moderate Disagreement","Very Strong Agreement","Moderate Disagreement","Slight Agreement","Very Strong Agreement","Strong Disagreement","Moderate Disagreement","Neither Agreement nor Disagreement","Slight Disagreement","Very Strong Agreement","Slight Disagreement","Moderate Agreement","Moderate Agreement"
"26","A3VBUVGBQ74JJF:3J4Q2Z4UTZ9SATR794NIU704V7LQWP","practice",3,2,3,"NA","<p style=""font-size:100px""><b>p</b></p><p style=""position: absolute; top: 30px; right: 30px; text-align:right; font-size:50px"""">N = 3</p>","p",0,73,311,1,"agree",11,16,17,13,17,"36","Male","no","Very Strong Agreement","Slight Agreement","Very Strong Agreement","Slight Agreement","Moderate Agreement","Moderate Disagreement","Very Strong Agreement","Moderate Disagreement","Slight Agreement","Very Strong Agreement","Strong Disagreement","Moderate Disagreement","Neither Agreement nor Disagreement","Slight Disagreement","Very Strong Agreement","Slight Disagreement","Moderate Agreement","Moderate Agreement"
"27","A3VBUVGBQ74JJF:3J4Q2Z4UTZ9SATR794NIU704V7LQWP","practice",3,3,3,"NA","<p style=""font-size:100px""><b>g</b></p><p style=""position: absolute; top: 30px; right: 30px; text-align:right; font-size:50px"""">N = 3</p>","g",0,73,222,1,"agree",11,16,17,13,17,"36","Male","no","Very Strong Agreement","Slight Agreement","Very Strong Agreement","Slight Agreement","Moderate Agreement","Moderate Disagreement","Very Strong Agreement","Moderate Disagreement","Slight Agreement","Very Strong Agreement","Strong Disagreement","Moderate Disagreement","Neither Agreement nor Disagreement","Slight Disagreement","Very Strong Agreement","Slight Disagreement","Moderate Agreement","Moderate Agreement"
"28","A3VBUVGBQ74JJF:3J4Q2Z4UTZ9SATR794NIU704V7LQWP","practice",3,4,3,"NA","<p style=""font-size:100px""><b>b</b></p><p style=""position: absolute; top: 30px; right: 30px; text-align:right; font-size:50px"""">N = 3</p>","b",0,73,2999,1,"agree",11,16,17,13,17,"36","Male","no","Very Strong Agreement","Slight Agreement","Very Strong Agreement","Slight Agreement","Moderate Agreement","Moderate Disagreement","Very Strong Agreement","Moderate Disagreement","Slight Agreement","Very Strong Agreement","Strong Disagreement","Moderate Disagreement","Neither Agreement nor Disagreement","Slight Disagreement","Very Strong Agreement","Slight Disagreement","Moderate Agreement","Moderate Agreement"
"29","A3VBUVGBQ74JJF:3J4Q2Z4UTZ9SATR794NIU704V7LQWP","practice",3,5,3,"NA","<p style=""font-size:100px""><b>p</b></p><p style=""position: absolute; top: 30px; right: 30px; text-align:right; font-size:50px"""">N = 3</p>","p",1,73,185,0,"agree",11,16,17,13,17,"36","Male","no","Very Strong Agreement","Slight Agreement","Very Strong Agreement","Slight Agreement","Moderate Agreement","Moderate Disagreement","Very Strong Agreement","Moderate Disagreement","Slight Agreement","Very Strong Agreement","Strong Disagreement","Moderate Disagreement","Neither Agreement nor Disagreement","Slight Disagreement","Very Strong Agreement","Slight Disagreement","Moderate Agreement","Moderate Agreement"
"30","A3VBUVGBQ74JJF:3J4Q2Z4UTZ9SATR794NIU704V7LQWP","practice",3,6,3,"NA","<p style=""font-size:100px""><b>g</b></p><p style=""position: absolute; top: 30px; right: 30px; text-align:right; font-size:50px"""">N = 3</p>","g",1,73,66,0,"agree",11,16,17,13,17,"36","Male","no","Very Strong Agreement","Slight Agreement","Very Strong Agreement","Slight Agreement","Moderate Agreement","Moderate Disagreement","Very Strong Agreement","Moderate Disagreement","Slight Agreement","Very Strong Agreement","Strong Disagreement","Moderate Disagreement","Neither Agreement nor Disagreement","Slight Disagreement","Very Strong Agreement","Slight Disagreement","Moderate Agreement","Moderate Agreement"
"31","A3VBUVGBQ74JJF:3J4Q2Z4UTZ9SATR794NIU704V7LQWP","practice",3,7,3,"NA","<p style=""font-size:100px""><b>b</b></p><p style=""position: absolute; top: 30px; right: 30px; text-align:right; font-size:50px"""">N = 3</p>","b",1,73,295,0,"agree",11,16,17,13,17,"36","Male","no","Very Strong Agreement","Slight Agreement","Very Strong Agreement","Slight Agreement","Moderate Agreement","Moderate Disagreement","Very Strong Agreement","Moderate Disagreement","Slight Agreement","Very Strong Agreement","Strong Disagreement","Moderate Disagreement","Neither Agreement nor Disagreement","Slight Disagreement","Very Strong Agreement","Slight Disagreement","Moderate Agreement","Moderate Agreement"
"32","A3VBUVGBQ74JJF:3J4Q2Z4UTZ9SATR794NIU704V7LQWP","practice",3,8,3,"NA","<p style=""font-size:100px""><b>t</b></p><p style=""position: absolute; top: 30px; right: 30px; text-align:right; font-size:50px"""">N = 3</p>","t",0,73,35,1,"agree",11,16,17,13,17,"36","Male","no","Very Strong Agreement","Slight Agreement","Very Strong Agreement","Slight Agreement","Moderate Agreement","Moderate Disagreement","Very Strong Agreement","Moderate Disagreement","Slight Agreement","Very Strong Agreement","Strong Disagreement","Moderate Disagreement","Neither Agreement nor Disagreement","Slight Disagreement","Very Strong Agreement","Slight Disagreement","Moderate Agreement","Moderate Agreement"
"33","A3VBUVGBQ74JJF:3J4Q2Z4UTZ9SATR794NIU704V7LQWP","practice",3,9,3,"NA","<p style=""font-size:100px""><b>d</b></p><p style=""position: absolute; top: 30px; right: 30px; text-align:right; font-size:50px"""">N = 3</p>","d",0,73,136,1,"agree",11,16,17,13,17,"36","Male","no","Very Strong Agreement","Slight Agreement","Very Strong Agreement","Slight Agreement","Moderate Agreement","Moderate Disagreement","Very Strong Agreement","Moderate Disagreement","Slight Agreement","Very Strong Agreement","Strong Disagreement","Moderate Disagreement","Neither Agreement nor Disagreement","Slight Disagreement","Very Strong Agreement","Slight Disagreement","Moderate Agreement","Moderate Agreement"
"34","A3VBUVGBQ74JJF:3J4Q2Z4UTZ9SATR794NIU704V7LQWP","practice",3,10,3,"NA","<p style=""font-size:100px""><b>d</b></p><p style=""position: absolute; top: 30px; right: 30px; text-align:right; font-size:50px"""">N = 3</p>","d",0,73,322,1,"agree",11,16,17,13,17,"36","Male","no","Very Strong Agreement","Slight Agreement","Very Strong Agreement","Slight Agreement","Moderate Agreement","Moderate Disagreement","Very Strong Agreement","Moderate Disagreement","Slight Agreement","Very Strong Agreement","Strong Disagreement","Moderate Disagreement","Neither Agreement nor Disagreement","Slight Disagreement","Very Strong Agreement","Slight Disagreement","Moderate Agreement","Moderate Agreement"
"35","A3VBUVGBQ74JJF:3J4Q2Z4UTZ9SATR794NIU704V7LQWP","practice",3,11,3,"NA","<p style=""font-size:100px""><b>t</b></p><p style=""position: absolute; top: 30px; right: 30px; text-align:right; font-size:50px"""">N = 3</p>","t",1,73,77,0,"agree",11,16,17,13,17,"36","Male","no","Very Strong Agreement","Slight Agreement","Very Strong Agreement","Slight Agreement","Moderate Agreement","Moderate Disagreement","Very Strong Agreement","Moderate Disagreement","Slight Agreement","Very Strong Agreement","Strong Disagreement","Moderate Disagreement","Neither Agreement nor Disagreement","Slight Disagreement","Very Strong Agreement","Slight Disagreement","Moderate Agreement","Moderate Agreement"
"36","A3VBUVGBQ74JJF:3J4Q2Z4UTZ9SATR794NIU704V7LQWP","practice",3,12,3,"NA","<p style=""font-size:100px""><b>V</b></p><p style=""position: absolute; top: 30px; right: 30px; text-align:right; font-size:50px"""">N = 3</p>","V",0,73,335,1,"agree",11,16,17,13,17,"36","Male","no","Very Strong Agreement","Slight Agreement","Very Strong Agreement","Slight Agreement","Moderate Agreement","Moderate Disagreement","Very Strong Agreement","Moderate Disagreement","Slight Agreement","Very Strong Agreement","Strong Disagreement","Moderate Disagreement","Neither Agreement nor Disagreement","Slight Disagreement","Very Strong Agreement","Slight Disagreement","Moderate Agreement","Moderate Agreement"
"37","A3VBUVGBQ74JJF:3J4Q2Z4UTZ9SATR794NIU704V7LQWP","1",1,1,3,"5","<p style=""font-size:100px""><b>B</b></p><p style=""position: absolute; top: 30px; right: 30px; text-align:right; font-size:50px"""">N = 3</p>","B",0,73,45,1,"agree",11,16,17,13,17,"36","Male","no","Very Strong Agreement","Slight Agreement","Very Strong Agreement","Slight Agreement","Moderate Agreement","Moderate Disagreement","Very Strong Agreement","Moderate Disagreement","Slight Agreement","Very Strong Agreement","Strong Disagreement","Moderate Disagreement","Neither Agreement nor Disagreement","Slight Disagreement","Very Strong Agreement","Slight Disagreement","Moderate Agreement","Moderate Agreement"
"38","A3VBUVGBQ74JJF:3J4Q2Z4UTZ9SATR794NIU704V7LQWP","1",1,2,3,"5","<p style=""font-size:100px""><b>P</b></p><p style=""position: absolute; top: 30px; right: 30px; text-align:right; font-size:50px"""">N = 3</p>","P",0,73,320,1,"agree",11,16,17,13,17,"36","Male","no","Very Strong Agreement","Slight Agreement","Very Strong Agreement","Slight Agreement","Moderate Agreement","Moderate Disagreement","Very Strong Agreement","Moderate Disagreement","Slight Agreement","Very Strong Agreement","Strong Disagreement","Moderate Disagreement","Neither Agreement nor Disagreement","Slight Disagreement","Very Strong Agreement","Slight Disagreement","Moderate Agreement","Moderate Agreement"
"39","A3VBUVGBQ74JJF:3J4Q2Z4UTZ9SATR794NIU704V7LQWP","1",1,3,3,"5","<p style=""font-size:100px""><b>g</b></p><p style=""position: absolute; top: 30px; right: 30px; text-align:right; font-size:50px"""">N = 3</p>","g",0,73,547,1,"agree",11,16,17,13,17,"36","Male","no","Very Strong Agreement","Slight Agreement","Very Strong Agreement","Slight Agreement","Moderate Agreement","Moderate Disagreement","Very Strong Agreement","Moderate Disagreement","Slight Agreement","Very Strong Agreement","Strong Disagreement","Moderate Disagreement","Neither Agreement nor Disagreement","Slight Disagreement","Very Strong Agreement","Slight Disagreement","Moderate Agreement","Moderate Agreement"
"40","A3VBUVGBQ74JJF:3J4Q2Z4UTZ9SATR794NIU704V7LQWP","1",1,4,3,"5","<p style=""font-size:100px""><b>B</b></p><p style=""position: absolute; top: 30px; right: 30px; text-align:right; font-size:50px"""">N = 3</p>","B",0,73,126,1,"agree",11,16,17,13,17,"36","Male","no","Very Strong Agreement","Slight Agreement","Very Strong Agreement","Slight Agreement","Moderate Agreement","Moderate Disagreement","Very Strong Agreement","Moderate Disagreement","Slight Agreement","Very Strong Agreement","Strong Disagreement","Moderate Disagreement","Neither Agreement nor Disagreement","Slight Disagreement","Very Strong Agreement","Slight Disagreement","Moderate Agreement","Moderate Agreement"
"41","A3VBUVGBQ74JJF:3J4Q2Z4UTZ9SATR794NIU704V7LQWP","1",1,5,3,"5","<p style=""font-size:100px""><b>g</b></p><p style=""position: absolute; top: 30px; right: 30px; text-align:right; font-size:50px"""">N = 3</p>","g",0,73,166,1,"agree",11,16,17,13,17,"36","Male","no","Very Strong Agreement","Slight Agreement","Very Strong Agreement","Slight Agreement","Moderate Agreement","Moderate Disagreement","Very Strong Agreement","Moderate Disagreement","Slight Agreement","Very Strong Agreement","Strong Disagreement","Moderate Disagreement","Neither Agreement nor Disagreement","Slight Disagreement","Very Strong Agreement","Slight Disagreement","Moderate Agreement","Moderate Agreement"
"42","A3VBUVGBQ74JJF:3J4Q2Z4UTZ9SATR794NIU704V7LQWP","1",1,6,3,"5","<p style=""font-size:100px""><b>B</b></p><p style=""position: absolute; top: 30px; right: 30px; text-align:right; font-size:50px"""">N = 3</p>","B",0,73,147,1,"agree",11,16,17,13,17,"36","Male","no","Very Strong Agreement","Slight Agreement","Very Strong Agreement","Slight Agreement","Moderate Agreement","Moderate Disagreement","Very Strong Agreement","Moderate Disagreement","Slight Agreement","Very Strong Agreement","Strong Disagreement","Moderate Disagreement","Neither Agreement nor Disagreement","Slight Disagreement","Very Strong Agreement","Slight Disagreement","Moderate Agreement","Moderate Agreement"
"43","A3VBUVGBQ74JJF:3J4Q2Z4UTZ9SATR794NIU704V7LQWP","1",1,7,3,"5","<p style=""font-size:100px""><b>B</b></p><p style=""position: absolute; top: 30px; right: 30px; text-align:right; font-size:50px"""">N = 3</p>","B",0,73,242,1,"agree",11,16,17,13,17,"36","Male","no","Very Strong Agreement","Slight Agreement","Very Strong Agreement","Slight Agreement","Moderate Agreement","Moderate Disagreement","Very Strong Agreement","Moderate Disagreement","Slight Agreement","Very Strong Agreement","Strong Disagreement","Moderate Disagreement","Neither Agreement nor Disagreement","Slight Disagreement","Very Strong Agreement","Slight Disagreement","Moderate Agreement","Moderate Agreement"
"44","A3VBUVGBQ74JJF:3J4Q2Z4UTZ9SATR794NIU704V7LQWP","1",1,8,3,"5","<p style=""font-size:100px""><b>b</b></p><p style=""position: absolute; top: 30px; right: 30px; text-align:right; font-size:50px"""">N = 3</p>","b",0,73,288,1,"agree",11,16,17,13,17,"36","Male","no","Very Strong Agreement","Slight Agreement","Very Strong Agreement","Slight Agreement","Moderate Agreement","Moderate Disagreement","Very Strong Agreement","Moderate Disagreement","Slight Agreement","Very Strong Agreement","Strong Disagreement","Moderate Disagreement","Neither Agreement nor Disagreement","Slight Disagreement","Very Strong Agreement","Slight Disagreement","Moderate Agreement","Moderate Agreement"
"45","A3VBUVGBQ74JJF:3J4Q2Z4UTZ9SATR794NIU704V7LQWP","1",1,9,3,"5","<p style=""font-size:100px""><b>B</b></p><p style=""position: absolute; top: 30px; right: 30px; text-align:right; font-size:50px"""">N = 3</p>","B",0,73,377,1,"agree",11,16,17,13,17,"36","Male","no","Very Strong Agreement","Slight Agreement","Very Strong Agreement","Slight Agreement","Moderate Agreement","Moderate Disagreement","Very Strong Agreement","Moderate Disagreement","Slight Agreement","Very Strong Agreement","Strong Disagreement","Moderate Disagreement","Neither Agreement nor Disagreement","Slight Disagreement","Very Strong Agreement","Slight Disagreement","Moderate Agreement","Moderate Agreement"
"46","A3VBUVGBQ74JJF:3J4Q2Z4UTZ9SATR794NIU704V7LQWP","1",1,10,3,"5","<p style=""font-size:100px""><b>B</b></p><p style=""position: absolute; top: 30px; right: 30px; text-align:right; font-size:50px"""">N = 3</p>","B",0,73,205,1,"agree",11,16,17,13,17,"36","Male","no","Very Strong Agreement","Slight Agreement","Very Strong Agreement","Slight Agreement","Moderate Agreement","Moderate Disagreement","Very Strong Agreement","Moderate Disagreement","Slight Agreement","Very Strong Agreement","Strong Disagreement","Moderate Disagreement","Neither Agreement nor Disagreement","Slight Disagreement","Very Strong Agreement","Slight Disagreement","Moderate Agreement","Moderate Agreement"
"47","A3VBUVGBQ74JJF:3J4Q2Z4UTZ9SATR794NIU704V7LQWP","1",1,11,3,"5","<p style=""font-size:100px""><b>G</b></p><p style=""position: absolute; top: 30px; right: 30px; text-align:right; font-size:50px"""">N = 3</p>","G",0,73,87,1,"agree",11,16,17,13,17,"36","Male","no","Very Strong Agreement","Slight Agreement","Very Strong Agreement","Slight Agreement","Moderate Agreement","Moderate Disagreement","Very Strong Agreement","Moderate Disagreement","Slight Agreement","Very Strong Agreement","Strong Disagreement","Moderate Disagreement","Neither Agreement nor Disagreement","Slight Disagreement","Very Strong Agreement","Slight Disagreement","Moderate Agreement","Moderate Agreement"
"48","A3VBUVGBQ74JJF:3J4Q2Z4UTZ9SATR794NIU704V7LQWP","1",1,12,3,"5","<p style=""font-size:100px""><b>g</b></p><p style=""position: absolute; top: 30px; right: 30px; text-align:right; font-size:50px"""">N = 3</p>","g",0,73,150,1,"agree",11,16,17,13,17,"36","Male","no","Very Strong Agreement","Slight Agreement","Very Strong Agreement","Slight Agreement","Moderate Agreement","Moderate Disagreement","Very Strong Agreement","Moderate Disagreement","Slight Agreement","Very Strong Agreement","Strong Disagreement","Moderate Disagreement","Neither Agreement nor Disagreement","Slight Disagreement","Very Strong Agreement","Slight Disagreement","Moderate Agreement","Moderate Agreement"
"49","A3VBUVGBQ74JJF:3J4Q2Z4UTZ9SATR794NIU704V7LQWP","1",2,1,2,"50","<p style=""font-size:100px""><b>d</b></p><p style=""position: absolute; top: 30px; right: 30px; text-align:right; font-size:50px"""">N = 2</p>","d",0,73,42,1,"agree",14,13,19,14,17,"36","Male","no","Very Strong Agreement","Slight Agreement","Very Strong Agreement","Slight Agreement","Moderate Agreement","Moderate Disagreement","Very Strong Agreement","Moderate Disagreement","Slight Agreement","Very Strong Agreement","Strong Disagreement","Moderate Disagreement","Neither Agreement nor Disagreement","Slight Disagreement","Very Strong Agreement","Slight Disagreement","Moderate Agreement","Moderate Agreement"
"50","A3VBUVGBQ74JJF:3J4Q2Z4UTZ9SATR794NIU704V7LQWP","1",2,2,2,"50","<p style=""font-size:100px""><b>T</b></p><p style=""position: absolute; top: 30px; right: 30px; text-align:right; font-size:50px"""">N = 2</p>","T",0,73,139,1,"agree",14,13,19,14,17,"36","Male","no","Very Strong Agreement","Slight Agreement","Very Strong Agreement","Slight Agreement","Moderate Agreement","Moderate Disagreement","Very Strong Agreement","Moderate Disagreement","Slight Agreement","Very Strong Agreement","Strong Disagreement","Moderate Disagreement","Neither Agreement nor Disagreement","Slight Disagreement","Very Strong Agreement","Slight Disagreement","Moderate Agreement","Moderate Agreement"
"51","A3VBUVGBQ74JJF:3J4Q2Z4UTZ9SATR794NIU704V7LQWP","1",2,3,2,"50","<p style=""font-size:100px""><b>T</b></p><p style=""position: absolute; top: 30px; right: 30px; text-align:right; font-size:50px"""">N = 2</p>","T",0,NA,NA,0,"agree",14,13,19,14,17,"36","Male","no","Very Strong Agreement","Slight Agreement","Very Strong Agreement","Slight Agreement","Moderate Agreement","Moderate Disagreement","Very Strong Agreement","Moderate Disagreement","Slight Agreement","Very Strong Agreement","Strong Disagreement","Moderate Disagreement","Neither Agreement nor Disagreement","Slight Disagreement","Very Strong Agreement","Slight Disagreement","Moderate Agreement","Moderate Agreement"
"52","A3VBUVGBQ74JJF:3J4Q2Z4UTZ9SATR794NIU704V7LQWP","1",2,4,2,"50","<p style=""font-size:100px""><b>V</b></p><p style=""position: absolute; top: 30px; right: 30px; text-align:right; font-size:50px"""">N = 2</p>","V",0,NA,NA,0,"agree",14,13,19,14,17,"36","Male","no","Very Strong Agreement","Slight Agreement","Very Strong Agreement","Slight Agreement","Moderate Agreement","Moderate Disagreement","Very Strong Agreement","Moderate Disagreement","Slight Agreement","Very Strong Agreement","Strong Disagreement","Moderate Disagreement","Neither Agreement nor Disagreement","Slight Disagreement","Very Strong Agreement","Slight Disagreement","Moderate Agreement","Moderate Agreement"
"53","A3VBUVGBQ74JJF:3J4Q2Z4UTZ9SATR794NIU704V7LQWP","1",2,5,2,"50","<p style=""font-size:100px""><b>P</b></p><p style=""position: absolute; top: 30px; right: 30px; text-align:right; font-size:50px"""">N = 2</p>","P",0,NA,NA,0,"agree",14,13,19,14,17,"36","Male","no","Very Strong Agreement","Slight Agreement","Very Strong Agreement","Slight Agreement","Moderate Agreement","Moderate Disagreement","Very Strong Agreement","Moderate Disagreement","Slight Agreement","Very Strong Agreement","Strong Disagreement","Moderate Disagreement","Neither Agreement nor Disagreement","Slight Disagreement","Very Strong Agreement","Slight Disagreement","Moderate Agreement","Moderate Agreement"
"54","A3VBUVGBQ74JJF:3J4Q2Z4UTZ9SATR794NIU704V7LQWP","1",2,6,2,"50","<p style=""font-size:100px""><b>V</b></p><p style=""position: absolute; top: 30px; right: 30px; text-align:right; font-size:50px"""">N = 2</p>","V",0,NA,NA,0,"agree",14,13,19,14,17,"36","Male","no","Very Strong Agreement","Slight Agreement","Very Strong Agreement","Slight Agreement","Moderate Agreement","Moderate Disagreement","Very Strong Agreement","Moderate Disagreement","Slight Agreement","Very Strong Agreement","Strong Disagreement","Moderate Disagreement","Neither Agreement nor Disagreement","Slight Disagreement","Very Strong Agreement","Slight Disagreement","Moderate Agreement","Moderate Agreement"
"55","A3VBUVGBQ74JJF:3J4Q2Z4UTZ9SATR794NIU704V7LQWP","1",2,7,2,"50","<p style=""font-size:100px""><b>P</b></p><p style=""position: absolute; top: 30px; right: 30px; text-align:right; font-size:50px"""">N = 2</p>","P",0,NA,NA,0,"agree",14,13,19,14,17,"36","Male","no","Very Strong Agreement","Slight Agreement","Very Strong Agreement","Slight Agreement","Moderate Agreement","Moderate Disagreement","Very Strong Agreement","Moderate Disagreement","Slight Agreement","Very Strong Agreement","Strong Disagreement","Moderate Disagreement","Neither Agreement nor Disagreement","Slight Disagreement","Very Strong Agreement","Slight Disagreement","Moderate Agreement","Moderate Agreement"
"56","A3VBUVGBQ74JJF:3J4Q2Z4UTZ9SATR794NIU704V7LQWP","1",2,8,2,"50","<p style=""font-size:100px""><b>t</b></p><p style=""position: absolute; top: 30px; right: 30px; text-align:right; font-size:50px"""">N = 2</p>","t",0,NA,NA,0,"agree",14,13,19,14,17,"36","Male","no","Very Strong Agreement","Slight Agreement","Very Strong Agreement","Slight Agreement","Moderate Agreement","Moderate Disagreement","Very Strong Agreement","Moderate Disagreement","Slight Agreement","Very Strong Agreement","Strong Disagreement","Moderate Disagreement","Neither Agreement nor Disagreement","Slight Disagreement","Very Strong Agreement","Slight Disagreement","Moderate Agreement","Moderate Agreement"
"57","A3VBUVGBQ74JJF:3J4Q2Z4UTZ9SATR794NIU704V7LQWP","1",2,9,2,"50","<p style=""font-size:100px""><b>P</b></p><p style=""position: absolute; top: 30px; right: 30px; text-align:right; font-size:50px"""">N = 2</p>","P",0,NA,NA,0,"agree",14,13,19,14,17,"36","Male","no","Very Strong Agreement","Slight Agreement","Very Strong Agreement","Slight Agreement","Moderate Agreement","Moderate Disagreement","Very Strong Agreement","Moderate Disagreement","Slight Agreement","Very Strong Agreement","Strong Disagreement","Moderate Disagreement","Neither Agreement nor Disagreement","Slight Disagreement","Very Strong Agreement","Slight Disagreement","Moderate Agreement","Moderate Agreement"
"58","A3VBUVGBQ74JJF:3J4Q2Z4UTZ9SATR794NIU704V7LQWP","1",2,10,2,"50","<p style=""font-size:100px""><b>G</b></p><p style=""position: absolute; top: 30px; right: 30px; text-align:right; font-size:50px"""">N = 2</p>","G",0,NA,NA,0,"agree",14,13,19,14,17,"36","Male","no","Very Strong Agreement","Slight Agreement","Very Strong Agreement","Slight Agreement","Moderate Agreement","Moderate Disagreement","Very Strong Agreement","Moderate Disagreement","Slight Agreement","Very Strong Agreement","Strong Disagreement","Moderate Disagreement","Neither Agreement nor Disagreement","Slight Disagreement","Very Strong Agreement","Slight Disagreement","Moderate Agreement","Moderate Agreement"
"59","A3VBUVGBQ74JJF:3J4Q2Z4UTZ9SATR794NIU704V7LQWP","1",2,11,2,"50","<p style=""font-size:100px""><b>g</b></p><p style=""position: absolute; top: 30px; right: 30px; text-align:right; font-size:50px"""">N = 2</p>","g",0,NA,NA,0,"agree",14,13,19,14,17,"36","Male","no","Very Strong Agreement","Slight Agreement","Very Strong Agreement","Slight Agreement","Moderate Agreement","Moderate Disagreement","Very Strong Agreement","Moderate Disagreement","Slight Agreement","Very Strong Agreement","Strong Disagreement","Moderate Disagreement","Neither Agreement nor Disagreement","Slight Disagreement","Very Strong Agreement","Slight Disagreement","Moderate Agreement","Moderate Agreement"
"60","A3VBUVGBQ74JJF:3J4Q2Z4UTZ9SATR794NIU704V7LQWP","1",2,12,2,"50","<p style=""font-size:100px""><b>G</b></p><p style=""position: absolute; top: 30px; right: 30px; text-align:right; font-size:50px"""">N = 2</p>","G",0,NA,NA,0,"agree",14,13,19,14,17,"36","Male","no","Very Strong Agreement","Slight Agreement","Very Strong Agreement","Slight Agreement","Moderate Agreement","Moderate Disagreement","Very Strong Agreement","Moderate Disagreement","Slight Agreement","Very Strong Agreement","Strong Disagreement","Moderate Disagreement","Neither Agreement nor Disagreement","Slight Disagreement","Very Strong Agreement","Slight Disagreement","Moderate Agreement","Moderate Agreement"
"61","A3VBUVGBQ74JJF:3J4Q2Z4UTZ9SATR794NIU704V7LQWP","1",3,1,2,"5","<p style=""font-size:100px""><b>p</b></p><p style=""position: absolute; top: 30px; right: 30px; text-align:right; font-size:50px"""">N = 2</p>","p",0,73,161,1,"agree",15,20,20,13,18,"36","Male","no","Very Strong Agreement","Slight Agreement","Very Strong Agreement","Slight Agreement","Moderate Agreement","Moderate Disagreement","Very Strong Agreement","Moderate Disagreement","Slight Agreement","Very Strong Agreement","Strong Disagreement","Moderate Disagreement","Neither Agreement nor Disagreement","Slight Disagreement","Very Strong Agreement","Slight Disagreement","Moderate Agreement","Moderate Agreement"
"62","A3VBUVGBQ74JJF:3J4Q2Z4UTZ9SATR794NIU704V7LQWP","1",3,2,2,"5","<p style=""font-size:100px""><b>d</b></p><p style=""position: absolute; top: 30px; right: 30px; text-align:right; font-size:50px"""">N = 2</p>","d",0,73,932,1,"agree",15,20,20,13,18,"36","Male","no","Very Strong Agreement","Slight Agreement","Very Strong Agreement","Slight Agreement","Moderate Agreement","Moderate Disagreement","Very Strong Agreement","Moderate Disagreement","Slight Agreement","Very Strong Agreement","Strong Disagreement","Moderate Disagreement","Neither Agreement nor Disagreement","Slight Disagreement","Very Strong Agreement","Slight Disagreement","Moderate Agreement","Moderate Agreement"
"63","A3VBUVGBQ74JJF:3J4Q2Z4UTZ9SATR794NIU704V7LQWP","1",3,3,2,"5","<p style=""font-size:100px""><b>p</b></p><p style=""position: absolute; top: 30px; right: 30px; text-align:right; font-size:50px"""">N = 2</p>","p",0,NA,NA,0,"agree",15,20,20,13,18,"36","Male","no","Very Strong Agreement","Slight Agreement","Very Strong Agreement","Slight Agreement","Moderate Agreement","Moderate Disagreement","Very Strong Agreement","Moderate Disagreement","Slight Agreement","Very Strong Agreement","Strong Disagreement","Moderate Disagreement","Neither Agreement nor Disagreement","Slight Disagreement","Very Strong Agreement","Slight Disagreement","Moderate Agreement","Moderate Agreement"
"64","A3VBUVGBQ74JJF:3J4Q2Z4UTZ9SATR794NIU704V7LQWP","1",3,4,2,"5","<p style=""font-size:100px""><b>T</b></p><p style=""position: absolute; top: 30px; right: 30px; text-align:right; font-size:50px"""">N = 2</p>","T",0,73,312,1,"agree",15,20,20,13,18,"36","Male","no","Very Strong Agreement","Slight Agreement","Very Strong Agreement","Slight Agreement","Moderate Agreement","Moderate Disagreement","Very Strong Agreement","Moderate Disagreement","Slight Agreement","Very Strong Agreement","Strong Disagreement","Moderate Disagreement","Neither Agreement nor Disagreement","Slight Disagreement","Very Strong Agreement","Slight Disagreement","Moderate Agreement","Moderate Agreement"
"65","A3VBUVGBQ74JJF:3J4Q2Z4UTZ9SATR794NIU704V7LQWP","1",3,5,2,"5","<p style=""font-size:100px""><b>B</b></p><p style=""position: absolute; top: 30px; right: 30px; text-align:right; font-size:50px"""">N = 2</p>","B",0,73,204,1,"agree",15,20,20,13,18,"36","Male","no","Very Strong Agreement","Slight Agreement","Very Strong Agreement","Slight Agreement","Moderate Agreement","Moderate Disagreement","Very Strong Agreement","Moderate Disagreement","Slight Agreement","Very Strong Agreement","Strong Disagreement","Moderate Disagreement","Neither Agreement nor Disagreement","Slight Disagreement","Very Strong Agreement","Slight Disagreement","Moderate Agreement","Moderate Agreement"
"66","A3VBUVGBQ74JJF:3J4Q2Z4UTZ9SATR794NIU704V7LQWP","1",3,6,2,"5","<p style=""font-size:100px""><b>T</b></p><p style=""position: absolute; top: 30px; right: 30px; text-align:right; font-size:50px"""">N = 2</p>","T",0,73,705,1,"agree",15,20,20,13,18,"36","Male","no","Very Strong Agreement","Slight Agreement","Very Strong Agreement","Slight Agreement","Moderate Agreement","Moderate Disagreement","Very Strong Agreement","Moderate Disagreement","Slight Agreement","Very Strong Agreement","Strong Disagreement","Moderate Disagreement","Neither Agreement nor Disagreement","Slight Disagreement","Very Strong Agreement","Slight Disagreement","Moderate Agreement","Moderate Agreement"
"67","A3VBUVGBQ74JJF:3J4Q2Z4UTZ9SATR794NIU704V7LQWP","1",3,7,2,"5","<p style=""font-size:100px""><b>p</b></p><p style=""position: absolute; top: 30px; right: 30px; text-align:right; font-size:50px"""">N = 2</p>","p",0,73,391,1,"agree",15,20,20,13,18,"36","Male","no","Very Strong Agreement","Slight Agreement","Very Strong Agreement","Slight Agreement","Moderate Agreement","Moderate Disagreement","Very Strong Agreement","Moderate Disagreement","Slight Agreement","Very Strong Agreement","Strong Disagreement","Moderate Disagreement","Neither Agreement nor Disagreement","Slight Disagreement","Very Strong Agreement","Slight Disagreement","Moderate Agreement","Moderate Agreement"
"68","A3VBUVGBQ74JJF:3J4Q2Z4UTZ9SATR794NIU704V7LQWP","1",3,8,2,"5","<p style=""font-size:100px""><b>D</b></p><p style=""position: absolute; top: 30px; right: 30px; text-align:right; font-size:50px"""">N = 2</p>","D",0,73,843,1,"agree",15,20,20,13,18,"36","Male","no","Very Strong Agreement","Slight Agreement","Very Strong Agreement","Slight Agreement","Moderate Agreement","Moderate Disagreement","Very Strong Agreement","Moderate Disagreement","Slight Agreement","Very Strong Agreement","Strong Disagreement","Moderate Disagreement","Neither Agreement nor Disagreement","Slight Disagreement","Very Strong Agreement","Slight Disagreement","Moderate Agreement","Moderate Agreement"
"69","A3VBUVGBQ74JJF:3J4Q2Z4UTZ9SATR794NIU704V7LQWP","1",3,9,2,"5","<p style=""font-size:100px""><b>p</b></p><p style=""position: absolute; top: 30px; right: 30px; text-align:right; font-size:50px"""">N = 2</p>","p",0,73,128,1,"agree",15,20,20,13,18,"36","Male","no","Very Strong Agreement","Slight Agreement","Very Strong Agreement","Slight Agreement","Moderate Agreement","Moderate Disagreement","Very Strong Agreement","Moderate Disagreement","Slight Agreement","Very Strong Agreement","Strong Disagreement","Moderate Disagreement","Neither Agreement nor Disagreement","Slight Disagreement","Very Strong Agreement","Slight Disagreement","Moderate Agreement","Moderate Agreement"
"70","A3VBUVGBQ74JJF:3J4Q2Z4UTZ9SATR794NIU704V7LQWP","1",3,10,2,"5","<p style=""font-size:100px""><b>P</b></p><p style=""position: absolute; top: 30px; right: 30px; text-align:right; font-size:50px"""">N = 2</p>","P",0,73,348,1,"agree",15,20,20,13,18,"36","Male","no","Very Strong Agreement","Slight Agreement","Very Strong Agreement","Slight Agreement","Moderate Agreement","Moderate Disagreement","Very Strong Agreement","Moderate Disagreement","Slight Agreement","Very Strong Agreement","Strong Disagreement","Moderate Disagreement","Neither Agreement nor Disagreement","Slight Disagreement","Very Strong Agreement","Slight Disagreement","Moderate Agreement","Moderate Agreement"
"71","A3VBUVGBQ74JJF:3J4Q2Z4UTZ9SATR794NIU704V7LQWP","1",3,11,2,"5","<p style=""font-size:100px""><b>p</b></p><p style=""position: absolute; top: 30px; right: 30px; text-align:right; font-size:50px"""">N = 2</p>","p",0,73,394,1,"agree",15,20,20,13,18,"36","Male","no","Very Strong Agreement","Slight Agreement","Very Strong Agreement","Slight Agreement","Moderate Agreement","Moderate Disagreement","Very Strong Agreement","Moderate Disagreement","Slight Agreement","Very Strong Agreement","Strong Disagreement","Moderate Disagreement","Neither Agreement nor Disagreement","Slight Disagreement","Very Strong Agreement","Slight Disagreement","Moderate Agreement","Moderate Agreement"
"72","A3VBUVGBQ74JJF:3J4Q2Z4UTZ9SATR794NIU704V7LQWP","1",3,12,2,"5","<p style=""font-size:100px""><b>T</b></p><p style=""position: absolute; top: 30px; right: 30px; text-align:right; font-size:50px"""">N = 2</p>","T",0,73,404,1,"agree",15,20,20,13,18,"36","Male","no","Very Strong Agreement","Slight Agreement","Very Strong Agreement","Slight Agreement","Moderate Agreement","Moderate Disagreement","Very Strong Agreement","Moderate Disagreement","Slight Agreement","Very Strong Agreement","Strong Disagreement","Moderate Disagreement","Neither Agreement nor Disagreement","Slight Disagreement","Very Strong Agreement","Slight Disagreement","Moderate Agreement","Moderate Agreement"
"73","A3VBUVGBQ74JJF:3J4Q2Z4UTZ9SATR794NIU704V7LQWP","1",4,1,1,"50","<p style=""font-size:100px""><b>t</b></p><p style=""position: absolute; top: 30px; right: 30px; text-align:right; font-size:50px"""">N = 1</p>","t",0,73,174,1,"agree",17,15,16,13,19,"36","Male","no","Very Strong Agreement","Slight Agreement","Very Strong Agreement","Slight Agreement","Moderate Agreement","Moderate Disagreement","Very Strong Agreement","Moderate Disagreement","Slight Agreement","Very Strong Agreement","Strong Disagreement","Moderate Disagreement","Neither Agreement nor Disagreement","Slight Disagreement","Very Strong Agreement","Slight Disagreement","Moderate Agreement","Moderate Agreement"
"74","A3VBUVGBQ74JJF:3J4Q2Z4UTZ9SATR794NIU704V7LQWP","1",4,2,1,"50","<p style=""font-size:100px""><b>t</b></p><p style=""position: absolute; top: 30px; right: 30px; text-align:right; font-size:50px"""">N = 1</p>","t",0,73,213,1,"agree",17,15,16,13,19,"36","Male","no","Very Strong Agreement","Slight Agreement","Very Strong Agreement","Slight Agreement","Moderate Agreement","Moderate Disagreement","Very Strong Agreement","Moderate Disagreement","Slight Agreement","Very Strong Agreement","Strong Disagreement","Moderate Disagreement","Neither Agreement nor Disagreement","Slight Disagreement","Very Strong Agreement","Slight Disagreement","Moderate Agreement","Moderate Agreement"
"75","A3VBUVGBQ74JJF:3J4Q2Z4UTZ9SATR794NIU704V7LQWP","1",4,3,1,"50","<p style=""font-size:100px""><b>v</b></p><p style=""position: absolute; top: 30px; right: 30px; text-align:right; font-size:50px"""">N = 1</p>","v",0,NA,NA,0,"agree",17,15,16,13,19,"36","Male","no","Very Strong Agreement","Slight Agreement","Very Strong Agreement","Slight Agreement","Moderate Agreement","Moderate Disagreement","Very Strong Agreement","Moderate Disagreement","Slight Agreement","Very Strong Agreement","Strong Disagreement","Moderate Disagreement","Neither Agreement nor Disagreement","Slight Disagreement","Very Strong Agreement","Slight Disagreement","Moderate Agreement","Moderate Agreement"
"76","A3VBUVGBQ74JJF:3J4Q2Z4UTZ9SATR794NIU704V7LQWP","1",4,4,1,"50","<p style=""font-size:100px""><b>v</b></p><p style=""position: absolute; top: 30px; right: 30px; text-align:right; font-size:50px"""">N = 1</p>","v",0,NA,NA,0,"agree",17,15,16,13,19,"36","Male","no","Very Strong Agreement","Slight Agreement","Very Strong Agreement","Slight Agreement","Moderate Agreement","Moderate Disagreement","Very Strong Agreement","Moderate Disagreement","Slight Agreement","Very Strong Agreement","Strong Disagreement","Moderate Disagreement","Neither Agreement nor Disagreement","Slight Disagreement","Very Strong Agreement","Slight Disagreement","Moderate Agreement","Moderate Agreement"
"77","A3VBUVGBQ74JJF:3J4Q2Z4UTZ9SATR794NIU704V7LQWP","1",4,5,1,"50","<p style=""font-size:100px""><b>D</b></p><p style=""position: absolute; top: 30px; right: 30px; text-align:right; font-size:50px"""">N = 1</p>","D",0,NA,NA,0,"agree",17,15,16,13,19,"36","Male","no","Very Strong Agreement","Slight Agreement","Very Strong Agreement","Slight Agreement","Moderate Agreement","Moderate Disagreement","Very Strong Agreement","Moderate Disagreement","Slight Agreement","Very Strong Agreement","Strong Disagreement","Moderate Disagreement","Neither Agreement nor Disagreement","Slight Disagreement","Very Strong Agreement","Slight Disagreement","Moderate Agreement","Moderate Agreement"
"78","A3VBUVGBQ74JJF:3J4Q2Z4UTZ9SATR794NIU704V7LQWP","1",4,6,1,"50","<p style=""font-size:100px""><b>G</b></p><p style=""position: absolute; top: 30px; right: 30px; text-align:right; font-size:50px"""">N = 1</p>","G",0,NA,NA,0,"agree",17,15,16,13,19,"36","Male","no","Very Strong Agreement","Slight Agreement","Very Strong Agreement","Slight Agreement","Moderate Agreement","Moderate Disagreement","Very Strong Agreement","Moderate Disagreement","Slight Agreement","Very Strong Agreement","Strong Disagreement","Moderate Disagreement","Neither Agreement nor Disagreement","Slight Disagreement","Very Strong Agreement","Slight Disagreement","Moderate Agreement","Moderate Agreement"
"79","A3VBUVGBQ74JJF:3J4Q2Z4UTZ9SATR794NIU704V7LQWP","1",4,7,1,"50","<p style=""font-size:100px""><b>b</b></p><p style=""position: absolute; top: 30px; right: 30px; text-align:right; font-size:50px"""">N = 1</p>","b",0,NA,NA,0,"agree",17,15,16,13,19,"36","Male","no","Very Strong Agreement","Slight Agreement","Very Strong Agreement","Slight Agreement","Moderate Agreement","Moderate Disagreement","Very Strong Agreement","Moderate Disagreement","Slight Agreement","Very Strong Agreement","Strong Disagreement","Moderate Disagreement","Neither Agreement nor Disagreement","Slight Disagreement","Very Strong Agreement","Slight Disagreement","Moderate Agreement","Moderate Agreement"
"80","A3VBUVGBQ74JJF:3J4Q2Z4UTZ9SATR794NIU704V7LQWP","1",4,8,1,"50","<p style=""font-size:100px""><b>b</b></p><p style=""position: absolute; top: 30px; right: 30px; text-align:right; font-size:50px"""">N = 1</p>","b",0,NA,NA,0,"agree",17,15,16,13,19,"36","Male","no","Very Strong Agreement","Slight Agreement","Very Strong Agreement","Slight Agreement","Moderate Agreement","Moderate Disagreement","Very Strong Agreement","Moderate Disagreement","Slight Agreement","Very Strong Agreement","Strong Disagreement","Moderate Disagreement","Neither Agreement nor Disagreement","Slight Disagreement","Very Strong Agreement","Slight Disagreement","Moderate Agreement","Moderate Agreement"
"81","A3VBUVGBQ74JJF:3J4Q2Z4UTZ9SATR794NIU704V7LQWP","1",4,9,1,"50","<p style=""font-size:100px""><b>T</b></p><p style=""position: absolute; top: 30px; right: 30px; text-align:right; font-size:50px"""">N = 1</p>","T",0,NA,NA,0,"agree",17,15,16,13,19,"36","Male","no","Very Strong Agreement","Slight Agreement","Very Strong Agreement","Slight Agreement","Moderate Agreement","Moderate Disagreement","Very Strong Agreement","Moderate Disagreement","Slight Agreement","Very Strong Agreement","Strong Disagreement","Moderate Disagreement","Neither Agreement nor Disagreement","Slight Disagreement","Very Strong Agreement","Slight Disagreement","Moderate Agreement","Moderate Agreement"
"82","A3VBUVGBQ74JJF:3J4Q2Z4UTZ9SATR794NIU704V7LQWP","1",4,10,1,"50","<p style=""font-size:100px""><b>P</b></p><p style=""position: absolute; top: 30px; right: 30px; text-align:right; font-size:50px"""">N = 1</p>","P",0,NA,NA,0,"agree",17,15,16,13,19,"36","Male","no","Very Strong Agreement","Slight Agreement","Very Strong Agreement","Slight Agreement","Moderate Agreement","Moderate Disagreement","Very Strong Agreement","Moderate Disagreement","Slight Agreement","Very Strong Agreement","Strong Disagreement","Moderate Disagreement","Neither Agreement nor Disagreement","Slight Disagreement","Very Strong Agreement","Slight Disagreement","Moderate Agreement","Moderate Agreement"
"83","A3VBUVGBQ74JJF:3J4Q2Z4UTZ9SATR794NIU704V7LQWP","1",4,11,1,"50","<p style=""font-size:100px""><b>d</b></p><p style=""position: absolute; top: 30px; right: 30px; text-align:right; font-size:50px"""">N = 1</p>","d",0,NA,NA,0,"agree",17,15,16,13,19,"36","Male","no","Very Strong Agreement","Slight Agreement","Very Strong Agreement","Slight Agreement","Moderate Agreement","Moderate Disagreement","Very Strong Agreement","Moderate Disagreement","Slight Agreement","Very Strong Agreement","Strong Disagreement","Moderate Disagreement","Neither Agreement nor Disagreement","Slight Disagreement","Very Strong Agreement","Slight Disagreement","Moderate Agreement","Moderate Agreement"
"84","A3VBUVGBQ74JJF:3J4Q2Z4UTZ9SATR794NIU704V7LQWP","1",4,12,1,"50","<p style=""font-size:100px""><b>d</b></p><p style=""position: absolute; top: 30px; right: 30px; text-align:right; font-size:50px"""">N = 1</p>","d",0,NA,NA,0,"agree",17,15,16,13,19,"36","Male","no","Very Strong Agreement","Slight Agreement","Very Strong Agreement","Slight Agreement","Moderate Agreement","Moderate Disagreement","Very Strong Agreement","Moderate Disagreement","Slight Agreement","Very Strong Agreement","Strong Disagreement","Moderate Disagreement","Neither Agreement nor Disagreement","Slight Disagreement","Very Strong Agreement","Slight Disagreement","Moderate Agreement","Moderate Agreement"
"85","A3VBUVGBQ74JJF:3J4Q2Z4UTZ9SATR794NIU704V7LQWP","1",5,1,2,"50","<p style=""font-size:100px""><b>g</b></p><p style=""position: absolute; top: 30px; right: 30px; text-align:right; font-size:50px"""">N = 2</p>","g",0,NA,NA,0,"agree",13,17,18,15,19,"36","Male","no","Very Strong Agreement","Slight Agreement","Very Strong Agreement","Slight Agreement","Moderate Agreement","Moderate Disagreement","Very Strong Agreement","Moderate Disagreement","Slight Agreement","Very Strong Agreement","Strong Disagreement","Moderate Disagreement","Neither Agreement nor Disagreement","Slight Disagreement","Very Strong Agreement","Slight Disagreement","Moderate Agreement","Moderate Agreement"
"86","A3VBUVGBQ74JJF:3J4Q2Z4UTZ9SATR794NIU704V7LQWP","1",5,2,2,"50","<p style=""font-size:100px""><b>v</b></p><p style=""position: absolute; top: 30px; right: 30px; text-align:right; font-size:50px"""">N = 2</p>","v",0,NA,NA,0,"agree",13,17,18,15,19,"36","Male","no","Very Strong Agreement","Slight Agreement","Very Strong Agreement","Slight Agreement","Moderate Agreement","Moderate Disagreement","Very Strong Agreement","Moderate Disagreement","Slight Agreement","Very Strong Agreement","Strong Disagreement","Moderate Disagreement","Neither Agreement nor Disagreement","Slight Disagreement","Very Strong Agreement","Slight Disagreement","Moderate Agreement","Moderate Agreement"
"87","A3VBUVGBQ74JJF:3J4Q2Z4UTZ9SATR794NIU704V7LQWP","1",5,3,2,"50","<p style=""font-size:100px""><b>D</b></p><p style=""position: absolute; top: 30px; right: 30px; text-align:right; font-size:50px"""">N = 2</p>","D",0,NA,NA,0,"agree",13,17,18,15,19,"36","Male","no","Very Strong Agreement","Slight Agreement","Very Strong Agreement","Slight Agreement","Moderate Agreement","Moderate Disagreement","Very Strong Agreement","Moderate Disagreement","Slight Agreement","Very Strong Agreement","Strong Disagreement","Moderate Disagreement","Neither Agreement nor Disagreement","Slight Disagreement","Very Strong Agreement","Slight Disagreement","Moderate Agreement","Moderate Agreement"
"88","A3VBUVGBQ74JJF:3J4Q2Z4UTZ9SATR794NIU704V7LQWP","1",5,4,2,"50","<p style=""font-size:100px""><b>v</b></p><p style=""position: absolute; top: 30px; right: 30px; text-align:right; font-size:50px"""">N = 2</p>","v",0,NA,NA,0,"agree",13,17,18,15,19,"36","Male","no","Very Strong Agreement","Slight Agreement","Very Strong Agreement","Slight Agreement","Moderate Agreement","Moderate Disagreement","Very Strong Agreement","Moderate Disagreement","Slight Agreement","Very Strong Agreement","Strong Disagreement","Moderate Disagreement","Neither Agreement nor Disagreement","Slight Disagreement","Very Strong Agreement","Slight Disagreement","Moderate Agreement","Moderate Agreement"
"89","A3VBUVGBQ74JJF:3J4Q2Z4UTZ9SATR794NIU704V7LQWP","1",5,5,2,"50","<p style=""font-size:100px""><b>b</b></p><p style=""position: absolute; top: 30px; right: 30px; text-align:right; font-size:50px"""">N = 2</p>","b",0,NA,NA,0,"agree",13,17,18,15,19,"36","Male","no","Very Strong Agreement","Slight Agreement","Very Strong Agreement","Slight Agreement","Moderate Agreement","Moderate Disagreement","Very Strong Agreement","Moderate Disagreement","Slight Agreement","Very Strong Agreement","Strong Disagreement","Moderate Disagreement","Neither Agreement nor Disagreement","Slight Disagreement","Very Strong Agreement","Slight Disagreement","Moderate Agreement","Moderate Agreement"
"90","A3VBUVGBQ74JJF:3J4Q2Z4UTZ9SATR794NIU704V7LQWP","1",5,6,2,"50","<p style=""font-size:100px""><b>d</b></p><p style=""position: absolute; top: 30px; right: 30px; text-align:right; font-size:50px"""">N = 2</p>","d",0,NA,NA,0,"agree",13,17,18,15,19,"36","Male","no","Very Strong Agreement","Slight Agreement","Very Strong Agreement","Slight Agreement","Moderate Agreement","Moderate Disagreement","Very Strong Agreement","Moderate Disagreement","Slight Agreement","Very Strong Agreement","Strong Disagreement","Moderate Disagreement","Neither Agreement nor Disagreement","Slight Disagreement","Very Strong Agreement","Slight Disagreement","Moderate Agreement","Moderate Agreement"
"91","A3VBUVGBQ74JJF:3J4Q2Z4UTZ9SATR794NIU704V7LQWP","1",5,7,2,"50","<p style=""font-size:100px""><b>b</b></p><p style=""position: absolute; top: 30px; right: 30px; text-align:right; font-size:50px"""">N = 2</p>","b",0,NA,NA,0,"agree",13,17,18,15,19,"36","Male","no","Very Strong Agreement","Slight Agreement","Very Strong Agreement","Slight Agreement","Moderate Agreement","Moderate Disagreement","Very Strong Agreement","Moderate Disagreement","Slight Agreement","Very Strong Agreement","Strong Disagreement","Moderate Disagreement","Neither Agreement nor Disagreement","Slight Disagreement","Very Strong Agreement","Slight Disagreement","Moderate Agreement","Moderate Agreement"
"92","A3VBUVGBQ74JJF:3J4Q2Z4UTZ9SATR794NIU704V7LQWP","1",5,8,2,"50","<p style=""font-size:100px""><b>v</b></p><p style=""position: absolute; top: 30px; right: 30px; text-align:right; font-size:50px"""">N = 2</p>","v",0,NA,NA,0,"agree",13,17,18,15,19,"36","Male","no","Very Strong Agreement","Slight Agreement","Very Strong Agreement","Slight Agreement","Moderate Agreement","Moderate Disagreement","Very Strong Agreement","Moderate Disagreement","Slight Agreement","Very Strong Agreement","Strong Disagreement","Moderate Disagreement","Neither Agreement nor Disagreement","Slight Disagreement","Very Strong Agreement","Slight Disagreement","Moderate Agreement","Moderate Agreement"
"93","A3VBUVGBQ74JJF:3J4Q2Z4UTZ9SATR794NIU704V7LQWP","1",5,9,2,"50","<p style=""font-size:100px""><b>b</b></p><p style=""position: absolute; top: 30px; right: 30px; text-align:right; font-size:50px"""">N = 2</p>","b",0,NA,NA,0,"agree",13,17,18,15,19,"36","Male","no","Very Strong Agreement","Slight Agreement","Very Strong Agreement","Slight Agreement","Moderate Agreement","Moderate Disagreement","Very Strong Agreement","Moderate Disagreement","Slight Agreement","Very Strong Agreement","Strong Disagreement","Moderate Disagreement","Neither Agreement nor Disagreement","Slight Disagreement","Very Strong Agreement","Slight Disagreement","Moderate Agreement","Moderate Agreement"
"94","A3VBUVGBQ74JJF:3J4Q2Z4UTZ9SATR794NIU704V7LQWP","1",5,10,2,"50","<p style=""font-size:100px""><b>t</b></p><p style=""position: absolute; top: 30px; right: 30px; text-align:right; font-size:50px"""">N = 2</p>","t",0,NA,NA,0,"agree",13,17,18,15,19,"36","Male","no","Very Strong Agreement","Slight Agreement","Very Strong Agreement","Slight Agreement","Moderate Agreement","Moderate Disagreement","Very Strong Agreement","Moderate Disagreement","Slight Agreement","Very Strong Agreement","Strong Disagreement","Moderate Disagreement","Neither Agreement nor Disagreement","Slight Disagreement","Very Strong Agreement","Slight Disagreement","Moderate Agreement","Moderate Agreement"
"95","A3VBUVGBQ74JJF:3J4Q2Z4UTZ9SATR794NIU704V7LQWP","1",5,11,2,"50","<p style=""font-size:100px""><b>T</b></p><p style=""position: absolute; top: 30px; right: 30px; text-align:right; font-size:50px"""">N = 2</p>","T",0,NA,NA,0,"agree",13,17,18,15,19,"36","Male","no","Very Strong Agreement","Slight Agreement","Very Strong Agreement","Slight Agreement","Moderate Agreement","Moderate Disagreement","Very Strong Agreement","Moderate Disagreement","Slight Agreement","Very Strong Agreement","Strong Disagreement","Moderate Disagreement","Neither Agreement nor Disagreement","Slight Disagreement","Very Strong Agreement","Slight Disagreement","Moderate Agreement","Moderate Agreement"
"96","A3VBUVGBQ74JJF:3J4Q2Z4UTZ9SATR794NIU704V7LQWP","1",5,12,2,"50","<p style=""font-size:100px""><b>t</b></p><p style=""position: absolute; top: 30px; right: 30px; text-align:right; font-size:50px"""">N = 2</p>","t",0,NA,NA,0,"agree",13,17,18,15,19,"36","Male","no","Very Strong Agreement","Slight Agreement","Very Strong Agreement","Slight Agreement","Moderate Agreement","Moderate Disagreement","Very Strong Agreement","Moderate Disagreement","Slight Agreement","Very Strong Agreement","Strong Disagreement","Moderate Disagreement","Neither Agreement nor Disagreement","Slight Disagreement","Very Strong Agreement","Slight Disagreement","Moderate Agreement","Moderate Agreement"
"97","A3VBUVGBQ74JJF:3J4Q2Z4UTZ9SATR794NIU704V7LQWP","1",6,1,1,"50","<p style=""font-size:100px""><b>d</b></p><p style=""position: absolute; top: 30px; right: 30px; text-align:right; font-size:50px"""">N = 1</p>","d",0,NA,NA,0,"agree",13,18,20,14,17,"36","Male","no","Very Strong Agreement","Slight Agreement","Very Strong Agreement","Slight Agreement","Moderate Agreement","Moderate Disagreement","Very Strong Agreement","Moderate Disagreement","Slight Agreement","Very Strong Agreement","Strong Disagreement","Moderate Disagreement","Neither Agreement nor Disagreement","Slight Disagreement","Very Strong Agreement","Slight Disagreement","Moderate Agreement","Moderate Agreement"
"98","A3VBUVGBQ74JJF:3J4Q2Z4UTZ9SATR794NIU704V7LQWP","1",6,2,1,"50","<p style=""font-size:100px""><b>G</b></p><p style=""position: absolute; top: 30px; right: 30px; text-align:right; font-size:50px"""">N = 1</p>","G",0,NA,NA,0,"agree",13,18,20,14,17,"36","Male","no","Very Strong Agreement","Slight Agreement","Very Strong Agreement","Slight Agreement","Moderate Agreement","Moderate Disagreement","Very Strong Agreement","Moderate Disagreement","Slight Agreement","Very Strong Agreement","Strong Disagreement","Moderate Disagreement","Neither Agreement nor Disagreement","Slight Disagreement","Very Strong Agreement","Slight Disagreement","Moderate Agreement","Moderate Agreement"
"99","A3VBUVGBQ74JJF:3J4Q2Z4UTZ9SATR794NIU704V7LQWP","1",6,3,1,"50","<p style=""font-size:100px""><b>v</b></p><p style=""position: absolute; top: 30px; right: 30px; text-align:right; font-size:50px"""">N = 1</p>","v",0,NA,NA,0,"agree",13,18,20,14,17,"36","Male","no","Very Strong Agreement","Slight Agreement","Very Strong Agreement","Slight Agreement","Moderate Agreement","Moderate Disagreement","Very Strong Agreement","Moderate Disagreement","Slight Agreement","Very Strong Agreement","Strong Disagreement","Moderate Disagreement","Neither Agreement nor Disagreement","Slight Disagreement","Very Strong Agreement","Slight Disagreement","Moderate Agreement","Moderate Agreement"
"100","A3VBUVGBQ74JJF:3J4Q2Z4UTZ9SATR794NIU704V7LQWP","1",6,4,1,"50","<p style=""font-size:100px""><b>b</b></p><p style=""position: absolute; top: 30px; right: 30px; text-align:right; font-size:50px"""">N = 1</p>","b",0,NA,NA,0,"agree",13,18,20,14,17,"36","Male","no","Very Strong Agreement","Slight Agreement","Very Strong Agreement","Slight Agreement","Moderate Agreement","Moderate Disagreement","Very Strong Agreement","Moderate Disagreement","Slight Agreement","Very Strong Agreement","Strong Disagreement","Moderate Disagreement","Neither Agreement nor Disagreement","Slight Disagreement","Very Strong Agreement","Slight Disagreement","Moderate Agreement","Moderate Agreement"
"101","A3VBUVGBQ74JJF:3J4Q2Z4UTZ9SATR794NIU704V7LQWP","1",6,5,1,"50","<p style=""font-size:100px""><b>V</b></p><p style=""position: absolute; top: 30px; right: 30px; text-align:right; font-size:50px"""">N = 1</p>","V",0,NA,NA,0,"agree",13,18,20,14,17,"36","Male","no","Very Strong Agreement","Slight Agreement","Very Strong Agreement","Slight Agreement","Moderate Agreement","Moderate Disagreement","Very Strong Agreement","Moderate Disagreement","Slight Agreement","Very Strong Agreement","Strong Disagreement","Moderate Disagreement","Neither Agreement nor Disagreement","Slight Disagreement","Very Strong Agreement","Slight Disagreement","Moderate Agreement","Moderate Agreement"
"102","A3VBUVGBQ74JJF:3J4Q2Z4UTZ9SATR794NIU704V7LQWP","1",6,6,1,"50","<p style=""font-size:100px""><b>b</b></p><p style=""position: absolute; top: 30px; right: 30px; text-align:right; font-size:50px"""">N = 1</p>","b",0,NA,NA,0,"agree",13,18,20,14,17,"36","Male","no","Very Strong Agreement","Slight Agreement","Very Strong Agreement","Slight Agreement","Moderate Agreement","Moderate Disagreement","Very Strong Agreement","Moderate Disagreement","Slight Agreement","Very Strong Agreement","Strong Disagreement","Moderate Disagreement","Neither Agreement nor Disagreement","Slight Disagreement","Very Strong Agreement","Slight Disagreement","Moderate Agreement","Moderate Agreement"
"103","A3VBUVGBQ74JJF:3J4Q2Z4UTZ9SATR794NIU704V7LQWP","1",6,7,1,"50","<p style=""font-size:100px""><b>p</b></p><p style=""position: absolute; top: 30px; right: 30px; text-align:right; font-size:50px"""">N = 1</p>","p",0,NA,NA,0,"agree",13,18,20,14,17,"36","Male","no","Very Strong Agreement","Slight Agreement","Very Strong Agreement","Slight Agreement","Moderate Agreement","Moderate Disagreement","Very Strong Agreement","Moderate Disagreement","Slight Agreement","Very Strong Agreement","Strong Disagreement","Moderate Disagreement","Neither Agreement nor Disagreement","Slight Disagreement","Very Strong Agreement","Slight Disagreement","Moderate Agreement","Moderate Agreement"
"104","A3VBUVGBQ74JJF:3J4Q2Z4UTZ9SATR794NIU704V7LQWP","1",6,8,1,"50","<p style=""font-size:100px""><b>p</b></p><p style=""position: absolute; top: 30px; right: 30px; text-align:right; font-size:50px"""">N = 1</p>","p",0,NA,NA,0,"agree",13,18,20,14,17,"36","Male","no","Very Strong Agreement","Slight Agreement","Very Strong Agreement","Slight Agreement","Moderate Agreement","Moderate Disagreement","Very Strong Agreement","Moderate Disagreement","Slight Agreement","Very Strong Agreement","Strong Disagreement","Moderate Disagreement","Neither Agreement nor Disagreement","Slight Disagreement","Very Strong Agreement","Slight Disagreement","Moderate Agreement","Moderate Agreement"
"105","A3VBUVGBQ74JJF:3J4Q2Z4UTZ9SATR794NIU704V7LQWP","1",6,9,1,"50","<p style=""font-size:100px""><b>T</b></p><p style=""position: absolute; top: 30px; right: 30px; text-align:right; font-size:50px"""">N = 1</p>","T",0,NA,NA,0,"agree",13,18,20,14,17,"36","Male","no","Very Strong Agreement","Slight Agreement","Very Strong Agreement","Slight Agreement","Moderate Agreement","Moderate Disagreement","Very Strong Agreement","Moderate Disagreement","Slight Agreement","Very Strong Agreement","Strong Disagreement","Moderate Disagreement","Neither Agreement nor Disagreement","Slight Disagreement","Very Strong Agreement","Slight Disagreement","Moderate Agreement","Moderate Agreement"
"106","A3VBUVGBQ74JJF:3J4Q2Z4UTZ9SATR794NIU704V7LQWP","1",6,10,1,"50","<p style=""font-size:100px""><b>T</b></p><p style=""position: absolute; top: 30px; right: 30px; text-align:right; font-size:50px"""">N = 1</p>","T",0,NA,NA,0,"agree",13,18,20,14,17,"36","Male","no","Very Strong Agreement","Slight Agreement","Very Strong Agreement","Slight Agreement","Moderate Agreement","Moderate Disagreement","Very Strong Agreement","Moderate Disagreement","Slight Agreement","Very Strong Agreement","Strong Disagreement","Moderate Disagreement","Neither Agreement nor Disagreement","Slight Disagreement","Very Strong Agreement","Slight Disagreement","Moderate Agreement","Moderate Agreement"
"107","A3VBUVGBQ74JJF:3J4Q2Z4UTZ9SATR794NIU704V7LQWP","1",6,11,1,"50","<p style=""font-size:100px""><b>T</b></p><p style=""position: absolute; top: 30px; right: 30px; text-align:right; font-size:50px"""">N = 1</p>","T",0,NA,NA,0,"agree",13,18,20,14,17,"36","Male","no","Very Strong Agreement","Slight Agreement","Very Strong Agreement","Slight Agreement","Moderate Agreement","Moderate Disagreement","Very Strong Agreement","Moderate Disagreement","Slight Agreement","Very Strong Agreement","Strong Disagreement","Moderate Disagreement","Neither Agreement nor Disagreement","Slight Disagreement","Very Strong Agreement","Slight Disagreement","Moderate Agreement","Moderate Agreement"
"108","A3VBUVGBQ74JJF:3J4Q2Z4UTZ9SATR794NIU704V7LQWP","1",6,12,1,"50","<p style=""font-size:100px""><b>T</b></p><p style=""position: absolute; top: 30px; right: 30px; text-align:right; font-size:50px"""">N = 1</p>","T",0,NA,NA,0,"agree",13,18,20,14,17,"36","Male","no","Very Strong Agreement","Slight Agreement","Very Strong Agreement","Slight Agreement","Moderate Agreement","Moderate Disagreement","Very Strong Agreement","Moderate Disagreement","Slight Agreement","Very Strong Agreement","Strong Disagreement","Moderate Disagreement","Neither Agreement nor Disagreement","Slight Disagreement","Very Strong Agreement","Slight Disagreement","Moderate Agreement","Moderate Agreement"
"109","A3VBUVGBQ74JJF:3J4Q2Z4UTZ9SATR794NIU704V7LQWP","2",7,1,1,"5","<p style=""font-size:100px""><b>p</b></p><p style=""position: absolute; top: 30px; right: 30px; text-align:right; font-size:50px"""">N = 1</p>","p",0,69,45,0,"agree",15,18,16,14,18,"36","Male","no","Very Strong Agreement","Slight Agreement","Very Strong Agreement","Slight Agreement","Moderate Agreement","Moderate Disagreement","Very Strong Agreement","Moderate Disagreement","Slight Agreement","Very Strong Agreement","Strong Disagreement","Moderate Disagreement","Neither Agreement nor Disagreement","Slight Disagreement","Very Strong Agreement","Slight Disagreement","Moderate Agreement","Moderate Agreement"
"110","A3VBUVGBQ74JJF:3J4Q2Z4UTZ9SATR794NIU704V7LQWP","2",7,2,1,"5","<p style=""font-size:100px""><b>p</b></p><p style=""position: absolute; top: 30px; right: 30px; text-align:right; font-size:50px"""">N = 1</p>","p",0,69,150,0,"agree",15,18,16,14,18,"36","Male","no","Very Strong Agreement","Slight Agreement","Very Strong Agreement","Slight Agreement","Moderate Agreement","Moderate Disagreement","Very Strong Agreement","Moderate Disagreement","Slight Agreement","Very Strong Agreement","Strong Disagreement","Moderate Disagreement","Neither Agreement nor Disagreement","Slight Disagreement","Very Strong Agreement","Slight Disagreement","Moderate Agreement","Moderate Agreement"
"111","A3VBUVGBQ74JJF:3J4Q2Z4UTZ9SATR794NIU704V7LQWP","2",7,3,1,"5","<p style=""font-size:100px""><b>T</b></p><p style=""position: absolute; top: 30px; right: 30px; text-align:right; font-size:50px"""">N = 1</p>","T",0,73,95,1,"agree",15,18,16,14,18,"36","Male","no","Very Strong Agreement","Slight Agreement","Very Strong Agreement","Slight Agreement","Moderate Agreement","Moderate Disagreement","Very Strong Agreement","Moderate Disagreement","Slight Agreement","Very Strong Agreement","Strong Disagreement","Moderate Disagreement","Neither Agreement nor Disagreement","Slight Disagreement","Very Strong Agreement","Slight Disagreement","Moderate Agreement","Moderate Agreement"
"112","A3VBUVGBQ74JJF:3J4Q2Z4UTZ9SATR794NIU704V7LQWP","2",7,4,1,"5","<p style=""font-size:100px""><b>T</b></p><p style=""position: absolute; top: 30px; right: 30px; text-align:right; font-size:50px"""">N = 1</p>","T",0,69,95,0,"agree",15,18,16,14,18,"36","Male","no","Very Strong Agreement","Slight Agreement","Very Strong Agreement","Slight Agreement","Moderate Agreement","Moderate Disagreement","Very Strong Agreement","Moderate Disagreement","Slight Agreement","Very Strong Agreement","Strong Disagreement","Moderate Disagreement","Neither Agreement nor Disagreement","Slight Disagreement","Very Strong Agreement","Slight Disagreement","Moderate Agreement","Moderate Agreement"
"113","A3VBUVGBQ74JJF:3J4Q2Z4UTZ9SATR794NIU704V7LQWP","2",7,5,1,"5","<p style=""font-size:100px""><b>T</b></p><p style=""position: absolute; top: 30px; right: 30px; text-align:right; font-size:50px"""">N = 1</p>","T",0,69,171,0,"agree",15,18,16,14,18,"36","Male","no","Very Strong Agreement","Slight Agreement","Very Strong Agreement","Slight Agreement","Moderate Agreement","Moderate Disagreement","Very Strong Agreement","Moderate Disagreement","Slight Agreement","Very Strong Agreement","Strong Disagreement","Moderate Disagreement","Neither Agreement nor Disagreement","Slight Disagreement","Very Strong Agreement","Slight Disagreement","Moderate Agreement","Moderate Agreement"
"114","A3VBUVGBQ74JJF:3J4Q2Z4UTZ9SATR794NIU704V7LQWP","2",7,6,1,"5","<p style=""font-size:100px""><b>g</b></p><p style=""position: absolute; top: 30px; right: 30px; text-align:right; font-size:50px"""">N = 1</p>","g",0,NA,NA,0,"agree",15,18,16,14,18,"36","Male","no","Very Strong Agreement","Slight Agreement","Very Strong Agreement","Slight Agreement","Moderate Agreement","Moderate Disagreement","Very Strong Agreement","Moderate Disagreement","Slight Agreement","Very Strong Agreement","Strong Disagreement","Moderate Disagreement","Neither Agreement nor Disagreement","Slight Disagreement","Very Strong Agreement","Slight Disagreement","Moderate Agreement","Moderate Agreement"
"115","A3VBUVGBQ74JJF:3J4Q2Z4UTZ9SATR794NIU704V7LQWP","2",7,7,1,"5","<p style=""font-size:100px""><b>g</b></p><p style=""position: absolute; top: 30px; right: 30px; text-align:right; font-size:50px"""">N = 1</p>","g",0,NA,NA,0,"agree",15,18,16,14,18,"36","Male","no","Very Strong Agreement","Slight Agreement","Very Strong Agreement","Slight Agreement","Moderate Agreement","Moderate Disagreement","Very Strong Agreement","Moderate Disagreement","Slight Agreement","Very Strong Agreement","Strong Disagreement","Moderate Disagreement","Neither Agreement nor Disagreement","Slight Disagreement","Very Strong Agreement","Slight Disagreement","Moderate Agreement","Moderate Agreement"
"116","A3VBUVGBQ74JJF:3J4Q2Z4UTZ9SATR794NIU704V7LQWP","2",7,8,1,"5","<p style=""font-size:100px""><b>b</b></p><p style=""position: absolute; top: 30px; right: 30px; text-align:right; font-size:50px"""">N = 1</p>","b",0,NA,NA,0,"agree",15,18,16,14,18,"36","Male","no","Very Strong Agreement","Slight Agreement","Very Strong Agreement","Slight Agreement","Moderate Agreement","Moderate Disagreement","Very Strong Agreement","Moderate Disagreement","Slight Agreement","Very Strong Agreement","Strong Disagreement","Moderate Disagreement","Neither Agreement nor Disagreement","Slight Disagreement","Very Strong Agreement","Slight Disagreement","Moderate Agreement","Moderate Agreement"
"117","A3VBUVGBQ74JJF:3J4Q2Z4UTZ9SATR794NIU704V7LQWP","2",7,9,1,"5","<p style=""font-size:100px""><b>P</b></p><p style=""position: absolute; top: 30px; right: 30px; text-align:right; font-size:50px"""">N = 1</p>","P",0,73,381,1,"agree",15,18,16,14,18,"36","Male","no","Very Strong Agreement","Slight Agreement","Very Strong Agreement","Slight Agreement","Moderate Agreement","Moderate Disagreement","Very Strong Agreement","Moderate Disagreement","Slight Agreement","Very Strong Agreement","Strong Disagreement","Moderate Disagreement","Neither Agreement nor Disagreement","Slight Disagreement","Very Strong Agreement","Slight Disagreement","Moderate Agreement","Moderate Agreement"
"118","A3VBUVGBQ74JJF:3J4Q2Z4UTZ9SATR794NIU704V7LQWP","2",7,10,1,"5","<p style=""font-size:100px""><b>D</b></p><p style=""position: absolute; top: 30px; right: 30px; text-align:right; font-size:50px"""">N = 1</p>","D",0,69,109,0,"agree",15,18,16,14,18,"36","Male","no","Very Strong Agreement","Slight Agreement","Very Strong Agreement","Slight Agreement","Moderate Agreement","Moderate Disagreement","Very Strong Agreement","Moderate Disagreement","Slight Agreement","Very Strong Agreement","Strong Disagreement","Moderate Disagreement","Neither Agreement nor Disagreement","Slight Disagreement","Very Strong Agreement","Slight Disagreement","Moderate Agreement","Moderate Agreement"
"119","A3VBUVGBQ74JJF:3J4Q2Z4UTZ9SATR794NIU704V7LQWP","2",7,11,1,"5","<p style=""font-size:100px""><b>b</b></p><p style=""position: absolute; top: 30px; right: 30px; text-align:right; font-size:50px"""">N = 1</p>","b",0,73,70,1,"agree",15,18,16,14,18,"36","Male","no","Very Strong Agreement","Slight Agreement","Very Strong Agreement","Slight Agreement","Moderate Agreement","Moderate Disagreement","Very Strong Agreement","Moderate Disagreement","Slight Agreement","Very Strong Agreement","Strong Disagreement","Moderate Disagreement","Neither Agreement nor Disagreement","Slight Disagreement","Very Strong Agreement","Slight Disagreement","Moderate Agreement","Moderate Agreement"
"120","A3VBUVGBQ74JJF:3J4Q2Z4UTZ9SATR794NIU704V7LQWP","2",7,12,1,"5","<p style=""font-size:100px""><b>d</b></p><p style=""position: absolute; top: 30px; right: 30px; text-align:right; font-size:50px"""">N = 1</p>","d",0,73,110,1,"agree",15,18,16,14,18,"36","Male","no","Very Strong Agreement","Slight Agreement","Very Strong Agreement","Slight Agreement","Moderate Agreement","Moderate Disagreement","Very Strong Agreement","Moderate Disagreement","Slight Agreement","Very Strong Agreement","Strong Disagreement","Moderate Disagreement","Neither Agreement nor Disagreement","Slight Disagreement","Very Strong Agreement","Slight Disagreement","Moderate Agreement","Moderate Agreement"
"121","A3VBUVGBQ74JJF:3J4Q2Z4UTZ9SATR794NIU704V7LQWP","2",8,1,2,"5","<p style=""font-size:100px""><b>p</b></p><p style=""position: absolute; top: 30px; right: 30px; text-align:right; font-size:50px"""">N = 2</p>","p",0,NA,NA,0,"agree",12,17,19,14,18,"36","Male","no","Very Strong Agreement","Slight Agreement","Very Strong Agreement","Slight Agreement","Moderate Agreement","Moderate Disagreement","Very Strong Agreement","Moderate Disagreement","Slight Agreement","Very Strong Agreement","Strong Disagreement","Moderate Disagreement","Neither Agreement nor Disagreement","Slight Disagreement","Very Strong Agreement","Slight Disagreement","Moderate Agreement","Moderate Agreement"
"122","A3VBUVGBQ74JJF:3J4Q2Z4UTZ9SATR794NIU704V7LQWP","2",8,2,2,"5","<p style=""font-size:100px""><b>v</b></p><p style=""position: absolute; top: 30px; right: 30px; text-align:right; font-size:50px"""">N = 2</p>","v",0,NA,NA,0,"agree",12,17,19,14,18,"36","Male","no","Very Strong Agreement","Slight Agreement","Very Strong Agreement","Slight Agreement","Moderate Agreement","Moderate Disagreement","Very Strong Agreement","Moderate Disagreement","Slight Agreement","Very Strong Agreement","Strong Disagreement","Moderate Disagreement","Neither Agreement nor Disagreement","Slight Disagreement","Very Strong Agreement","Slight Disagreement","Moderate Agreement","Moderate Agreement"
"123","A3VBUVGBQ74JJF:3J4Q2Z4UTZ9SATR794NIU704V7LQWP","2",8,3,2,"5","<p style=""font-size:100px""><b>T</b></p><p style=""position: absolute; top: 30px; right: 30px; text-align:right; font-size:50px"""">N = 2</p>","T",0,NA,NA,0,"agree",12,17,19,14,18,"36","Male","no","Very Strong Agreement","Slight Agreement","Very Strong Agreement","Slight Agreement","Moderate Agreement","Moderate Disagreement","Very Strong Agreement","Moderate Disagreement","Slight Agreement","Very Strong Agreement","Strong Disagreement","Moderate Disagreement","Neither Agreement nor Disagreement","Slight Disagreement","Very Strong Agreement","Slight Disagreement","Moderate Agreement","Moderate Agreement"
"124","A3VBUVGBQ74JJF:3J4Q2Z4UTZ9SATR794NIU704V7LQWP","2",8,4,2,"5","<p style=""font-size:100px""><b>t</b></p><p style=""position: absolute; top: 30px; right: 30px; text-align:right; font-size:50px"""">N = 2</p>","t",0,NA,NA,0,"agree",12,17,19,14,18,"36","Male","no","Very Strong Agreement","Slight Agreement","Very Strong Agreement","Slight Agreement","Moderate Agreement","Moderate Disagreement","Very Strong Agreement","Moderate Disagreement","Slight Agreement","Very Strong Agreement","Strong Disagreement","Moderate Disagreement","Neither Agreement nor Disagreement","Slight Disagreement","Very Strong Agreement","Slight Disagreement","Moderate Agreement","Moderate Agreement"
"125","A3VBUVGBQ74JJF:3J4Q2Z4UTZ9SATR794NIU704V7LQWP","2",8,5,2,"5","<p style=""font-size:100px""><b>T</b></p><p style=""position: absolute; top: 30px; right: 30px; text-align:right; font-size:50px"""">N = 2</p>","T",0,NA,NA,0,"agree",12,17,19,14,18,"36","Male","no","Very Strong Agreement","Slight Agreement","Very Strong Agreement","Slight Agreement","Moderate Agreement","Moderate Disagreement","Very Strong Agreement","Moderate Disagreement","Slight Agreement","Very Strong Agreement","Strong Disagreement","Moderate Disagreement","Neither Agreement nor Disagreement","Slight Disagreement","Very Strong Agreement","Slight Disagreement","Moderate Agreement","Moderate Agreement"
"126","A3VBUVGBQ74JJF:3J4Q2Z4UTZ9SATR794NIU704V7LQWP","2",8,6,2,"5","<p style=""font-size:100px""><b>D</b></p><p style=""position: absolute; top: 30px; right: 30px; text-align:right; font-size:50px"""">N = 2</p>","D",0,NA,NA,0,"agree",12,17,19,14,18,"36","Male","no","Very Strong Agreement","Slight Agreement","Very Strong Agreement","Slight Agreement","Moderate Agreement","Moderate Disagreement","Very Strong Agreement","Moderate Disagreement","Slight Agreement","Very Strong Agreement","Strong Disagreement","Moderate Disagreement","Neither Agreement nor Disagreement","Slight Disagreement","Very Strong Agreement","Slight Disagreement","Moderate Agreement","Moderate Agreement"
"127","A3VBUVGBQ74JJF:3J4Q2Z4UTZ9SATR794NIU704V7LQWP","2",8,7,2,"5","<p style=""font-size:100px""><b>b</b></p><p style=""position: absolute; top: 30px; right: 30px; text-align:right; font-size:50px"""">N = 2</p>","b",0,NA,NA,0,"agree",12,17,19,14,18,"36","Male","no","Very Strong Agreement","Slight Agreement","Very Strong Agreement","Slight Agreement","Moderate Agreement","Moderate Disagreement","Very Strong Agreement","Moderate Disagreement","Slight Agreement","Very Strong Agreement","Strong Disagreement","Moderate Disagreement","Neither Agreement nor Disagreement","Slight Disagreement","Very Strong Agreement","Slight Disagreement","Moderate Agreement","Moderate Agreement"
"128","A3VBUVGBQ74JJF:3J4Q2Z4UTZ9SATR794NIU704V7LQWP","2",8,8,2,"5","<p style=""font-size:100px""><b>D</b></p><p style=""position: absolute; top: 30px; right: 30px; text-align:right; font-size:50px"""">N = 2</p>","D",0,NA,NA,0,"agree",12,17,19,14,18,"36","Male","no","Very Strong Agreement","Slight Agreement","Very Strong Agreement","Slight Agreement","Moderate Agreement","Moderate Disagreement","Very Strong Agreement","Moderate Disagreement","Slight Agreement","Very Strong Agreement","Strong Disagreement","Moderate Disagreement","Neither Agreement nor Disagreement","Slight Disagreement","Very Strong Agreement","Slight Disagreement","Moderate Agreement","Moderate Agreement"
"129","A3VBUVGBQ74JJF:3J4Q2Z4UTZ9SATR794NIU704V7LQWP","2",8,9,2,"5","<p style=""font-size:100px""><b>V</b></p><p style=""position: absolute; top: 30px; right: 30px; text-align:right; font-size:50px"""">N = 2</p>","V",0,NA,NA,0,"agree",12,17,19,14,18,"36","Male","no","Very Strong Agreement","Slight Agreement","Very Strong Agreement","Slight Agreement","Moderate Agreement","Moderate Disagreement","Very Strong Agreement","Moderate Disagreement","Slight Agreement","Very Strong Agreement","Strong Disagreement","Moderate Disagreement","Neither Agreement nor Disagreement","Slight Disagreement","Very Strong Agreement","Slight Disagreement","Moderate Agreement","Moderate Agreement"
"130","A3VBUVGBQ74JJF:3J4Q2Z4UTZ9SATR794NIU704V7LQWP","2",8,10,2,"5","<p style=""font-size:100px""><b>D</b></p><p style=""position: absolute; top: 30px; right: 30px; text-align:right; font-size:50px"""">N = 2</p>","D",0,NA,NA,0,"agree",12,17,19,14,18,"36","Male","no","Very Strong Agreement","Slight Agreement","Very Strong Agreement","Slight Agreement","Moderate Agreement","Moderate Disagreement","Very Strong Agreement","Moderate Disagreement","Slight Agreement","Very Strong Agreement","Strong Disagreement","Moderate Disagreement","Neither Agreement nor Disagreement","Slight Disagreement","Very Strong Agreement","Slight Disagreement","Moderate Agreement","Moderate Agreement"
"131","A3VBUVGBQ74JJF:3J4Q2Z4UTZ9SATR794NIU704V7LQWP","2",8,11,2,"5","<p style=""font-size:100px""><b>V</b></p><p style=""position: absolute; top: 30px; right: 30px; text-align:right; font-size:50px"""">N = 2</p>","V",0,NA,NA,0,"agree",12,17,19,14,18,"36","Male","no","Very Strong Agreement","Slight Agreement","Very Strong Agreement","Slight Agreement","Moderate Agreement","Moderate Disagreement","Very Strong Agreement","Moderate Disagreement","Slight Agreement","Very Strong Agreement","Strong Disagreement","Moderate Disagreement","Neither Agreement nor Disagreement","Slight Disagreement","Very Strong Agreement","Slight Disagreement","Moderate Agreement","Moderate Agreement"
"132","A3VBUVGBQ74JJF:3J4Q2Z4UTZ9SATR794NIU704V7LQWP","2",8,12,2,"5","<p style=""font-size:100px""><b>B</b></p><p style=""position: absolute; top: 30px; right: 30px; text-align:right; font-size:50px"""">N = 2</p>","B",0,NA,NA,0,"agree",12,17,19,14,18,"36","Male","no","Very Strong Agreement","Slight Agreement","Very Strong Agreement","Slight Agreement","Moderate Agreement","Moderate Disagreement","Very Strong Agreement","Moderate Disagreement","Slight Agreement","Very Strong Agreement","Strong Disagreement","Moderate Disagreement","Neither Agreement nor Disagreement","Slight Disagreement","Very Strong Agreement","Slight Disagreement","Moderate Agreement","Moderate Agreement"
"133","A3VBUVGBQ74JJF:3J4Q2Z4UTZ9SATR794NIU704V7LQWP","2",9,1,3,"50","<p style=""font-size:100px""><b>b</b></p><p style=""position: absolute; top: 30px; right: 30px; text-align:right; font-size:50px"""">N = 3</p>","b",0,69,103,0,"agree",15,17,17,17,14,"36","Male","no","Very Strong Agreement","Slight Agreement","Very Strong Agreement","Slight Agreement","Moderate Agreement","Moderate Disagreement","Very Strong Agreement","Moderate Disagreement","Slight Agreement","Very Strong Agreement","Strong Disagreement","Moderate Disagreement","Neither Agreement nor Disagreement","Slight Disagreement","Very Strong Agreement","Slight Disagreement","Moderate Agreement","Moderate Agreement"
"134","A3VBUVGBQ74JJF:3J4Q2Z4UTZ9SATR794NIU704V7LQWP","2",9,2,3,"50","<p style=""font-size:100px""><b>t</b></p><p style=""position: absolute; top: 30px; right: 30px; text-align:right; font-size:50px"""">N = 3</p>","t",0,69,108,0,"agree",15,17,17,17,14,"36","Male","no","Very Strong Agreement","Slight Agreement","Very Strong Agreement","Slight Agreement","Moderate Agreement","Moderate Disagreement","Very Strong Agreement","Moderate Disagreement","Slight Agreement","Very Strong Agreement","Strong Disagreement","Moderate Disagreement","Neither Agreement nor Disagreement","Slight Disagreement","Very Strong Agreement","Slight Disagreement","Moderate Agreement","Moderate Agreement"
"135","A3VBUVGBQ74JJF:3J4Q2Z4UTZ9SATR794NIU704V7LQWP","2",9,3,3,"50","<p style=""font-size:100px""><b>T</b></p><p style=""position: absolute; top: 30px; right: 30px; text-align:right; font-size:50px"""">N = 3</p>","T",0,69,93,0,"agree",15,17,17,17,14,"36","Male","no","Very Strong Agreement","Slight Agreement","Very Strong Agreement","Slight Agreement","Moderate Agreement","Moderate Disagreement","Very Strong Agreement","Moderate Disagreement","Slight Agreement","Very Strong Agreement","Strong Disagreement","Moderate Disagreement","Neither Agreement nor Disagreement","Slight Disagreement","Very Strong Agreement","Slight Disagreement","Moderate Agreement","Moderate Agreement"
"136","A3VBUVGBQ74JJF:3J4Q2Z4UTZ9SATR794NIU704V7LQWP","2",9,4,3,"50","<p style=""font-size:100px""><b>b</b></p><p style=""position: absolute; top: 30px; right: 30px; text-align:right; font-size:50px"""">N = 3</p>","b",0,73,48,1,"agree",15,17,17,17,14,"36","Male","no","Very Strong Agreement","Slight Agreement","Very Strong Agreement","Slight Agreement","Moderate Agreement","Moderate Disagreement","Very Strong Agreement","Moderate Disagreement","Slight Agreement","Very Strong Agreement","Strong Disagreement","Moderate Disagreement","Neither Agreement nor Disagreement","Slight Disagreement","Very Strong Agreement","Slight Disagreement","Moderate Agreement","Moderate Agreement"
"137","A3VBUVGBQ74JJF:3J4Q2Z4UTZ9SATR794NIU704V7LQWP","2",9,5,3,"50","<p style=""font-size:100px""><b>t</b></p><p style=""position: absolute; top: 30px; right: 30px; text-align:right; font-size:50px"""">N = 3</p>","t",0,69,107,0,"agree",15,17,17,17,14,"36","Male","no","Very Strong Agreement","Slight Agreement","Very Strong Agreement","Slight Agreement","Moderate Agreement","Moderate Disagreement","Very Strong Agreement","Moderate Disagreement","Slight Agreement","Very Strong Agreement","Strong Disagreement","Moderate Disagreement","Neither Agreement nor Disagreement","Slight Disagreement","Very Strong Agreement","Slight Disagreement","Moderate Agreement","Moderate Agreement"
"138","A3VBUVGBQ74JJF:3J4Q2Z4UTZ9SATR794NIU704V7LQWP","2",9,6,3,"50","<p style=""font-size:100px""><b>b</b></p><p style=""position: absolute; top: 30px; right: 30px; text-align:right; font-size:50px"""">N = 3</p>","b",0,73,59,1,"agree",15,17,17,17,14,"36","Male","no","Very Strong Agreement","Slight Agreement","Very Strong Agreement","Slight Agreement","Moderate Agreement","Moderate Disagreement","Very Strong Agreement","Moderate Disagreement","Slight Agreement","Very Strong Agreement","Strong Disagreement","Moderate Disagreement","Neither Agreement nor Disagreement","Slight Disagreement","Very Strong Agreement","Slight Disagreement","Moderate Agreement","Moderate Agreement"
"139","A3VBUVGBQ74JJF:3J4Q2Z4UTZ9SATR794NIU704V7LQWP","2",9,7,3,"50","<p style=""font-size:100px""><b>p</b></p><p style=""position: absolute; top: 30px; right: 30px; text-align:right; font-size:50px"""">N = 3</p>","p",0,73,97,1,"agree",15,17,17,17,14,"36","Male","no","Very Strong Agreement","Slight Agreement","Very Strong Agreement","Slight Agreement","Moderate Agreement","Moderate Disagreement","Very Strong Agreement","Moderate Disagreement","Slight Agreement","Very Strong Agreement","Strong Disagreement","Moderate Disagreement","Neither Agreement nor Disagreement","Slight Disagreement","Very Strong Agreement","Slight Disagreement","Moderate Agreement","Moderate Agreement"
"140","A3VBUVGBQ74JJF:3J4Q2Z4UTZ9SATR794NIU704V7LQWP","2",9,8,3,"50","<p style=""font-size:100px""><b>D</b></p><p style=""position: absolute; top: 30px; right: 30px; text-align:right; font-size:50px"""">N = 3</p>","D",0,73,126,1,"agree",15,17,17,17,14,"36","Male","no","Very Strong Agreement","Slight Agreement","Very Strong Agreement","Slight Agreement","Moderate Agreement","Moderate Disagreement","Very Strong Agreement","Moderate Disagreement","Slight Agreement","Very Strong Agreement","Strong Disagreement","Moderate Disagreement","Neither Agreement nor Disagreement","Slight Disagreement","Very Strong Agreement","Slight Disagreement","Moderate Agreement","Moderate Agreement"
"141","A3VBUVGBQ74JJF:3J4Q2Z4UTZ9SATR794NIU704V7LQWP","2",9,9,3,"50","<p style=""font-size:100px""><b>b</b></p><p style=""position: absolute; top: 30px; right: 30px; text-align:right; font-size:50px"""">N = 3</p>","b",0,73,92,1,"agree",15,17,17,17,14,"36","Male","no","Very Strong Agreement","Slight Agreement","Very Strong Agreement","Slight Agreement","Moderate Agreement","Moderate Disagreement","Very Strong Agreement","Moderate Disagreement","Slight Agreement","Very Strong Agreement","Strong Disagreement","Moderate Disagreement","Neither Agreement nor Disagreement","Slight Disagreement","Very Strong Agreement","Slight Disagreement","Moderate Agreement","Moderate Agreement"
"142","A3VBUVGBQ74JJF:3J4Q2Z4UTZ9SATR794NIU704V7LQWP","2",9,10,3,"50","<p style=""font-size:100px""><b>p</b></p><p style=""position: absolute; top: 30px; right: 30px; text-align:right; font-size:50px"""">N = 3</p>","p",0,73,78,1,"agree",15,17,17,17,14,"36","Male","no","Very Strong Agreement","Slight Agreement","Very Strong Agreement","Slight Agreement","Moderate Agreement","Moderate Disagreement","Very Strong Agreement","Moderate Disagreement","Slight Agreement","Very Strong Agreement","Strong Disagreement","Moderate Disagreement","Neither Agreement nor Disagreement","Slight Disagreement","Very Strong Agreement","Slight Disagreement","Moderate Agreement","Moderate Agreement"
"143","A3VBUVGBQ74JJF:3J4Q2Z4UTZ9SATR794NIU704V7LQWP","2",9,11,3,"50","<p style=""font-size:100px""><b>G</b></p><p style=""position: absolute; top: 30px; right: 30px; text-align:right; font-size:50px"""">N = 3</p>","G",0,73,132,1,"agree",15,17,17,17,14,"36","Male","no","Very Strong Agreement","Slight Agreement","Very Strong Agreement","Slight Agreement","Moderate Agreement","Moderate Disagreement","Very Strong Agreement","Moderate Disagreement","Slight Agreement","Very Strong Agreement","Strong Disagreement","Moderate Disagreement","Neither Agreement nor Disagreement","Slight Disagreement","Very Strong Agreement","Slight Disagreement","Moderate Agreement","Moderate Agreement"
"144","A3VBUVGBQ74JJF:3J4Q2Z4UTZ9SATR794NIU704V7LQWP","2",9,12,3,"50","<p style=""font-size:100px""><b>P</b></p><p style=""position: absolute; top: 30px; right: 30px; text-align:right; font-size:50px"""">N = 3</p>","P",0,73,88,1,"agree",15,17,17,17,14,"36","Male","no","Very Strong Agreement","Slight Agreement","Very Strong Agreement","Slight Agreement","Moderate Agreement","Moderate Disagreement","Very Strong Agreement","Moderate Disagreement","Slight Agreement","Very Strong Agreement","Strong Disagreement","Moderate Disagreement","Neither Agreement nor Disagreement","Slight Disagreement","Very Strong Agreement","Slight Disagreement","Moderate Agreement","Moderate Agreement"
"145","A3VBUVGBQ74JJF:3J4Q2Z4UTZ9SATR794NIU704V7LQWP","2",10,1,3,"50","<p style=""font-size:100px""><b>T</b></p><p style=""position: absolute; top: 30px; right: 30px; text-align:right; font-size:50px"""">N = 3</p>","T",0,NA,NA,0,"agree",15,19,17,14,19,"36","Male","no","Very Strong Agreement","Slight Agreement","Very Strong Agreement","Slight Agreement","Moderate Agreement","Moderate Disagreement","Very Strong Agreement","Moderate Disagreement","Slight Agreement","Very Strong Agreement","Strong Disagreement","Moderate Disagreement","Neither Agreement nor Disagreement","Slight Disagreement","Very Strong Agreement","Slight Disagreement","Moderate Agreement","Moderate Agreement"
