"","subject","run","block","trial","N","reward","stimulus","cue","isTarget","key_press","rt","acc","debrief","performance","frustration","demand","temporal","effort","age","gender","comments","nfc1","nfc2","nfc3","nfc4","nfc5","nfc6","nfc7","nfc8","nfc9","nfc10","nfc11","nfc12","nfc13","nfc14","nfc15","nfc16","nfc17","nfc18"
"1","A3D1PXOYFFN1MM:32ZKVD547GT8FPNUG2FQULU8BDE3B6","practice",1,1,1,"NA","<p style=""font-size:100px""><b>g</b></p><p style=""position: absolute; top: 30px; right: 30px; text-align:right; font-size:50px"""">N = 1</p>","g",0,73,336,1,"agree",8,14,14,19,14,"36","Male","No","Strong Agreement","Neither Agreement nor Disagreement","Slight Disagreement","Moderate Agreement","Very Strong Agreement","Slight Agreement","Very Strong Agreement","Strong Agreement","Neither Agreement nor Disagreement","Very Strong Agreement","Slight Agreement","Very Strong Disagreement","Neither Agreement nor Disagreement","Strong Agreement","Neither Agreement nor Disagreement","Strong Agreement","Slight Disagreement","Very Strong Agreement"
"2","A3D1PXOYFFN1MM:32ZKVD547GT8FPNUG2FQULU8BDE3B6","practice",1,2,1,"NA","<p style=""font-size:100px""><b>g</b></p><p style=""position: absolute; top: 30px; right: 30px; text-align:right; font-size:50px"""">N = 1</p>","g",1,73,406,0,"agree",8,14,14,19,14,"36","Male","No","Strong Agreement","Neither Agreement nor Disagreement","Slight Disagreement","Moderate Agreement","Very Strong Agreement","Slight Agreement","Very Strong Agreement","Strong Agreement","Neither Agreement nor Disagreement","Very Strong Agreement","Slight Agreement","Very Strong Disagreement","Neither Agreement nor Disagreement","Strong Agreement","Neither Agreement nor Disagreement","Strong Agreement","Slight Disagreement","Very Strong Agreement"
"3","A3D1PXOYFFN1MM:32ZKVD547GT8FPNUG2FQULU8BDE3B6","practice",1,3,1,"NA","<p style=""font-size:100px""><b>D</b></p><p style=""position: absolute; top: 30px; right: 30px; text-align:right; font-size:50px"""">N = 1</p>","D",0,73,205,1,"agree",8,14,14,19,14,"36","Male","No","Strong Agreement","Neither Agreement nor Disagreement","Slight Disagreement","Moderate Agreement","Very Strong Agreement","Slight Agreement","Very Strong Agreement","Strong Agreement","Neither Agreement nor Disagreement","Very Strong Agreement","Slight Agreement","Very Strong Disagreement","Neither Agreement nor Disagreement","Strong Agreement","Neither Agreement nor Disagreement","Strong Agreement","Slight Disagreement","Very Strong Agreement"
"4","A3D1PXOYFFN1MM:32ZKVD547GT8FPNUG2FQULU8BDE3B6","practice",1,4,1,"NA","<p style=""font-size:100px""><b>T</b></p><p style=""position: absolute; top: 30px; right: 30px; text-align:right; font-size:50px"""">N = 1</p>","T",0,73,55,1,"agree",8,14,14,19,14,"36","Male","No","Strong Agreement","Neither Agreement nor Disagreement","Slight Disagreement","Moderate Agreement","Very Strong Agreement","Slight Agreement","Very Strong Agreement","Strong Agreement","Neither Agreement nor Disagreement","Very Strong Agreement","Slight Agreement","Very Strong Disagreement","Neither Agreement nor Disagreement","Strong Agreement","Neither Agreement nor Disagreement","Strong Agreement","Slight Disagreement","Very Strong Agreement"
"5","A3D1PXOYFFN1MM:32ZKVD547GT8FPNUG2FQULU8BDE3B6","practice",1,5,1,"NA","<p style=""font-size:100px""><b>V</b></p><p style=""position: absolute; top: 30px; right: 30px; text-align:right; font-size:50px"""">N = 1</p>","V",0,73,173,1,"agree",8,14,14,19,14,"36","Male","No","Strong Agreement","Neither Agreement nor Disagreement","Slight Disagreement","Moderate Agreement","Very Strong Agreement","Slight Agreement","Very Strong Agreement","Strong Agreement","Neither Agreement nor Disagreement","Very Strong Agreement","Slight Agreement","Very Strong Disagreement","Neither Agreement nor Disagreement","Strong Agreement","Neither Agreement nor Disagreement","Strong Agreement","Slight Disagreement","Very Strong Agreement"
"6","A3D1PXOYFFN1MM:32ZKVD547GT8FPNUG2FQULU8BDE3B6","practice",1,6,1,"NA","<p style=""font-size:100px""><b>b</b></p><p style=""position: absolute; top: 30px; right: 30px; text-align:right; font-size:50px"""">N = 1</p>","b",0,73,179,1,"agree",8,14,14,19,14,"36","Male","No","Strong Agreement","Neither Agreement nor Disagreement","Slight Disagreement","Moderate Agreement","Very Strong Agreement","Slight Agreement","Very Strong Agreement","Strong Agreement","Neither Agreement nor Disagreement","Very Strong Agreement","Slight Agreement","Very Strong Disagreement","Neither Agreement nor Disagreement","Strong Agreement","Neither Agreement nor Disagreement","Strong Agreement","Slight Disagreement","Very Strong Agreement"
"7","A3D1PXOYFFN1MM:32ZKVD547GT8FPNUG2FQULU8BDE3B6","practice",1,7,1,"NA","<p style=""font-size:100px""><b>b</b></p><p style=""position: absolute; top: 30px; right: 30px; text-align:right; font-size:50px"""">N = 1</p>","b",1,73,131,0,"agree",8,14,14,19,14,"36","Male","No","Strong Agreement","Neither Agreement nor Disagreement","Slight Disagreement","Moderate Agreement","Very Strong Agreement","Slight Agreement","Very Strong Agreement","Strong Agreement","Neither Agreement nor Disagreement","Very Strong Agreement","Slight Agreement","Very Strong Disagreement","Neither Agreement nor Disagreement","Strong Agreement","Neither Agreement nor Disagreement","Strong Agreement","Slight Disagreement","Very Strong Agreement"
"8","A3D1PXOYFFN1MM:32ZKVD547GT8FPNUG2FQULU8BDE3B6","practice",1,8,1,"NA","<p style=""font-size:100px""><b>b</b></p><p style=""position: absolute; top: 30px; right: 30px; text-align:right; font-size:50px"""">N = 1</p>","b",1,73,232,0,"agree",8,14,14,19,14,"36","Male","No","Strong Agreement","Neither Agreement nor Disagreement","Slight Disagreement","Moderate Agreement","Very Strong Agreement","Slight Agreement","Very Strong Agreement","Strong Agreement","Neither Agreement nor Disagreement","Very Strong Agreement","Slight Agreement","Very Strong Disagreement","Neither Agreement nor Disagreement","Strong Agreement","Neither Agreement nor Disagreement","Strong Agreement","Slight Disagreement","Very Strong Agreement"
"9","A3D1PXOYFFN1MM:32ZKVD547GT8FPNUG2FQULU8BDE3B6","practice",1,9,1,"NA","<p style=""font-size:100px""><b>v</b></p><p style=""position: absolute; top: 30px; right: 30px; text-align:right; font-size:50px"""">N = 1</p>","v",0,73,285,1,"agree",8,14,14,19,14,"36","Male","No","Strong Agreement","Neither Agreement nor Disagreement","Slight Disagreement","Moderate Agreement","Very Strong Agreement","Slight Agreement","Very Strong Agreement","Strong Agreement","Neither Agreement nor Disagreement","Very Strong Agreement","Slight Agreement","Very Strong Disagreement","Neither Agreement nor Disagreement","Strong Agreement","Neither Agreement nor Disagreement","Strong Agreement","Slight Disagreement","Very Strong Agreement"
"10","A3D1PXOYFFN1MM:32ZKVD547GT8FPNUG2FQULU8BDE3B6","practice",1,10,1,"NA","<p style=""font-size:100px""><b>v</b></p><p style=""position: absolute; top: 30px; right: 30px; text-align:right; font-size:50px"""">N = 1</p>","v",1,73,65,0,"agree",8,14,14,19,14,"36","Male","No","Strong Agreement","Neither Agreement nor Disagreement","Slight Disagreement","Moderate Agreement","Very Strong Agreement","Slight Agreement","Very Strong Agreement","Strong Agreement","Neither Agreement nor Disagreement","Very Strong Agreement","Slight Agreement","Very Strong Disagreement","Neither Agreement nor Disagreement","Strong Agreement","Neither Agreement nor Disagreement","Strong Agreement","Slight Disagreement","Very Strong Agreement"
"11","A3D1PXOYFFN1MM:32ZKVD547GT8FPNUG2FQULU8BDE3B6","practice",1,11,1,"NA","<p style=""font-size:100px""><b>P</b></p><p style=""position: absolute; top: 30px; right: 30px; text-align:right; font-size:50px"""">N = 1</p>","P",0,73,166,1,"agree",8,14,14,19,14,"36","Male","No","Strong Agreement","Neither Agreement nor Disagreement","Slight Disagreement","Moderate Agreement","Very Strong Agreement","Slight Agreement","Very Strong Agreement","Strong Agreement","Neither Agreement nor Disagreement","Very Strong Agreement","Slight Agreement","Very Strong Disagreement","Neither Agreement nor Disagreement","Strong Agreement","Neither Agreement nor Disagreement","Strong Agreement","Slight Disagreement","Very Strong Agreement"
"12","A3D1PXOYFFN1MM:32ZKVD547GT8FPNUG2FQULU8BDE3B6","practice",1,12,1,"NA","<p style=""font-size:100px""><b>b</b></p><p style=""position: absolute; top: 30px; right: 30px; text-align:right; font-size:50px"""">N = 1</p>","b",0,73,188,1,"agree",8,14,14,19,14,"36","Male","No","Strong Agreement","Neither Agreement nor Disagreement","Slight Disagreement","Moderate Agreement","Very Strong Agreement","Slight Agreement","Very Strong Agreement","Strong Agreement","Neither Agreement nor Disagreement","Very Strong Agreement","Slight Agreement","Very Strong Disagreement","Neither Agreement nor Disagreement","Strong Agreement","Neither Agreement nor Disagreement","Strong Agreement","Slight Disagreement","Very Strong Agreement"
"13","A3D1PXOYFFN1MM:32ZKVD547GT8FPNUG2FQULU8BDE3B6","practice",2,1,2,"NA","<p style=""font-size:100px""><b>t</b></p><p style=""position: absolute; top: 30px; right: 30px; text-align:right; font-size:50px"""">N = 2</p>","t",0,73,54,1,"agree",8,14,14,19,14,"36","Male","No","Strong Agreement","Neither Agreement nor Disagreement","Slight Disagreement","Moderate Agreement","Very Strong Agreement","Slight Agreement","Very Strong Agreement","Strong Agreement","Neither Agreement nor Disagreement","Very Strong Agreement","Slight Agreement","Very Strong Disagreement","Neither Agreement nor Disagreement","Strong Agreement","Neither Agreement nor Disagreement","Strong Agreement","Slight Disagreement","Very Strong Agreement"
"14","A3D1PXOYFFN1MM:32ZKVD547GT8FPNUG2FQULU8BDE3B6","practice",2,2,2,"NA","<p style=""font-size:100px""><b>T</b></p><p style=""position: absolute; top: 30px; right: 30px; text-align:right; font-size:50px"""">N = 2</p>","T",0,73,53,1,"agree",8,14,14,19,14,"36","Male","No","Strong Agreement","Neither Agreement nor Disagreement","Slight Disagreement","Moderate Agreement","Very Strong Agreement","Slight Agreement","Very Strong Agreement","Strong Agreement","Neither Agreement nor Disagreement","Very Strong Agreement","Slight Agreement","Very Strong Disagreement","Neither Agreement nor Disagreement","Strong Agreement","Neither Agreement nor Disagreement","Strong Agreement","Slight Disagreement","Very Strong Agreement"
"15","A3D1PXOYFFN1MM:32ZKVD547GT8FPNUG2FQULU8BDE3B6","practice",2,3,2,"NA","<p style=""font-size:100px""><b>v</b></p><p style=""position: absolute; top: 30px; right: 30px; text-align:right; font-size:50px"""">N = 2</p>","v",0,73,263,1,"agree",8,14,14,19,14,"36","Male","No","Strong Agreement","Neither Agreement nor Disagreement","Slight Disagreement","Moderate Agreement","Very Strong Agreement","Slight Agreement","Very Strong Agreement","Strong Agreement","Neither Agreement nor Disagreement","Very Strong Agreement","Slight Agreement","Very Strong Disagreement","Neither Agreement nor Disagreement","Strong Agreement","Neither Agreement nor Disagreement","Strong Agreement","Slight Disagreement","Very Strong Agreement"
"16","A3D1PXOYFFN1MM:32ZKVD547GT8FPNUG2FQULU8BDE3B6","practice",2,4,2,"NA","<p style=""font-size:100px""><b>T</b></p><p style=""position: absolute; top: 30px; right: 30px; text-align:right; font-size:50px"""">N = 2</p>","T",1,73,124,0,"agree",8,14,14,19,14,"36","Male","No","Strong Agreement","Neither Agreement nor Disagreement","Slight Disagreement","Moderate Agreement","Very Strong Agreement","Slight Agreement","Very Strong Agreement","Strong Agreement","Neither Agreement nor Disagreement","Very Strong Agreement","Slight Agreement","Very Strong Disagreement","Neither Agreement nor Disagreement","Strong Agreement","Neither Agreement nor Disagreement","Strong Agreement","Slight Disagreement","Very Strong Agreement"
"17","A3D1PXOYFFN1MM:32ZKVD547GT8FPNUG2FQULU8BDE3B6","practice",2,5,2,"NA","<p style=""font-size:100px""><b>v</b></p><p style=""position: absolute; top: 30px; right: 30px; text-align:right; font-size:50px"""">N = 2</p>","v",1,73,200,0,"agree",8,14,14,19,14,"36","Male","No","Strong Agreement","Neither Agreement nor Disagreement","Slight Disagreement","Moderate Agreement","Very Strong Agreement","Slight Agreement","Very Strong Agreement","Strong Agreement","Neither Agreement nor Disagreement","Very Strong Agreement","Slight Agreement","Very Strong Disagreement","Neither Agreement nor Disagreement","Strong Agreement","Neither Agreement nor Disagreement","Strong Agreement","Slight Disagreement","Very Strong Agreement"
"18","A3D1PXOYFFN1MM:32ZKVD547GT8FPNUG2FQULU8BDE3B6","practice",2,6,2,"NA","<p style=""font-size:100px""><b>T</b></p><p style=""position: absolute; top: 30px; right: 30px; text-align:right; font-size:50px"""">N = 2</p>","T",1,73,293,0,"agree",8,14,14,19,14,"36","Male","No","Strong Agreement","Neither Agreement nor Disagreement","Slight Disagreement","Moderate Agreement","Very Strong Agreement","Slight Agreement","Very Strong Agreement","Strong Agreement","Neither Agreement nor Disagreement","Very Strong Agreement","Slight Agreement","Very Strong Disagreement","Neither Agreement nor Disagreement","Strong Agreement","Neither Agreement nor Disagreement","Strong Agreement","Slight Disagreement","Very Strong Agreement"
"19","A3D1PXOYFFN1MM:32ZKVD547GT8FPNUG2FQULU8BDE3B6","practice",2,7,2,"NA","<p style=""font-size:100px""><b>G</b></p><p style=""position: absolute; top: 30px; right: 30px; text-align:right; font-size:50px"""">N = 2</p>","G",0,73,198,1,"agree",8,14,14,19,14,"36","Male","No","Strong Agreement","Neither Agreement nor Disagreement","Slight Disagreement","Moderate Agreement","Very Strong Agreement","Slight Agreement","Very Strong Agreement","Strong Agreement","Neither Agreement nor Disagreement","Very Strong Agreement","Slight Agreement","Very Strong Disagreement","Neither Agreement nor Disagreement","Strong Agreement","Neither Agreement nor Disagreement","Strong Agreement","Slight Disagreement","Very Strong Agreement"
"20","A3D1PXOYFFN1MM:32ZKVD547GT8FPNUG2FQULU8BDE3B6","practice",2,8,2,"NA","<p style=""font-size:100px""><b>v</b></p><p style=""position: absolute; top: 30px; right: 30px; text-align:right; font-size:50px"""">N = 2</p>","v",0,73,156,1,"agree",8,14,14,19,14,"36","Male","No","Strong Agreement","Neither Agreement nor Disagreement","Slight Disagreement","Moderate Agreement","Very Strong Agreement","Slight Agreement","Very Strong Agreement","Strong Agreement","Neither Agreement nor Disagreement","Very Strong Agreement","Slight Agreement","Very Strong Disagreement","Neither Agreement nor Disagreement","Strong Agreement","Neither Agreement nor Disagreement","Strong Agreement","Slight Disagreement","Very Strong Agreement"
"21","A3D1PXOYFFN1MM:32ZKVD547GT8FPNUG2FQULU8BDE3B6","practice",2,9,2,"NA","<p style=""font-size:100px""><b>d</b></p><p style=""position: absolute; top: 30px; right: 30px; text-align:right; font-size:50px"""">N = 2</p>","d",0,73,384,1,"agree",8,14,14,19,14,"36","Male","No","Strong Agreement","Neither Agreement nor Disagreement","Slight Disagreement","Moderate Agreement","Very Strong Agreement","Slight Agreement","Very Strong Agreement","Strong Agreement","Neither Agreement nor Disagreement","Very Strong Agreement","Slight Agreement","Very Strong Disagreement","Neither Agreement nor Disagreement","Strong Agreement","Neither Agreement nor Disagreement","Strong Agreement","Slight Disagreement","Very Strong Agreement"
"22","A3D1PXOYFFN1MM:32ZKVD547GT8FPNUG2FQULU8BDE3B6","practice",2,10,2,"NA","<p style=""font-size:100px""><b>d</b></p><p style=""position: absolute; top: 30px; right: 30px; text-align:right; font-size:50px"""">N = 2</p>","d",0,73,54,1,"agree",8,14,14,19,14,"36","Male","No","Strong Agreement","Neither Agreement nor Disagreement","Slight Disagreement","Moderate Agreement","Very Strong Agreement","Slight Agreement","Very Strong Agreement","Strong Agreement","Neither Agreement nor Disagreement","Very Strong Agreement","Slight Agreement","Very Strong Disagreement","Neither Agreement nor Disagreement","Strong Agreement","Neither Agreement nor Disagreement","Strong Agreement","Slight Disagreement","Very Strong Agreement"
"23","A3D1PXOYFFN1MM:32ZKVD547GT8FPNUG2FQULU8BDE3B6","practice",2,11,2,"NA","<p style=""font-size:100px""><b>P</b></p><p style=""position: absolute; top: 30px; right: 30px; text-align:right; font-size:50px"""">N = 2</p>","P",0,73,127,1,"agree",8,14,14,19,14,"36","Male","No","Strong Agreement","Neither Agreement nor Disagreement","Slight Disagreement","Moderate Agreement","Very Strong Agreement","Slight Agreement","Very Strong Agreement","Strong Agreement","Neither Agreement nor Disagreement","Very Strong Agreement","Slight Agreement","Very Strong Disagreement","Neither Agreement nor Disagreement","Strong Agreement","Neither Agreement nor Disagreement","Strong Agreement","Slight Disagreement","Very Strong Agreement"
"24","A3D1PXOYFFN1MM:32ZKVD547GT8FPNUG2FQULU8BDE3B6","practice",2,12,2,"NA","<p style=""font-size:100px""><b>d</b></p><p style=""position: absolute; top: 30px; right: 30px; text-align:right; font-size:50px"""">N = 2</p>","d",1,73,202,0,"agree",8,14,14,19,14,"36","Male","No","Strong Agreement","Neither Agreement nor Disagreement","Slight Disagreement","Moderate Agreement","Very Strong Agreement","Slight Agreement","Very Strong Agreement","Strong Agreement","Neither Agreement nor Disagreement","Very Strong Agreement","Slight Agreement","Very Strong Disagreement","Neither Agreement nor Disagreement","Strong Agreement","Neither Agreement nor Disagreement","Strong Agreement","Slight Disagreement","Very Strong Agreement"
"25","A3D1PXOYFFN1MM:32ZKVD547GT8FPNUG2FQULU8BDE3B6","practice",3,1,3,"NA","<p style=""font-size:100px""><b>v</b></p><p style=""position: absolute; top: 30px; right: 30px; text-align:right; font-size:50px"""">N = 3</p>","v",0,73,208,1,"agree",8,14,14,19,14,"36","Male","No","Strong Agreement","Neither Agreement nor Disagreement","Slight Disagreement","Moderate Agreement","Very Strong Agreement","Slight Agreement","Very Strong Agreement","Strong Agreement","Neither Agreement nor Disagreement","Very Strong Agreement","Slight Agreement","Very Strong Disagreement","Neither Agreement nor Disagreement","Strong Agreement","Neither Agreement nor Disagreement","Strong Agreement","Slight Disagreement","Very Strong Agreement"
"26","A3D1PXOYFFN1MM:32ZKVD547GT8FPNUG2FQULU8BDE3B6","practice",3,2,3,"NA","<p style=""font-size:100px""><b>T</b></p><p style=""position: absolute; top: 30px; right: 30px; text-align:right; font-size:50px"""">N = 3</p>","T",0,73,193,1,"agree",8,14,14,19,14,"36","Male","No","Strong Agreement","Neither Agreement nor Disagreement","Slight Disagreement","Moderate Agreement","Very Strong Agreement","Slight Agreement","Very Strong Agreement","Strong Agreement","Neither Agreement nor Disagreement","Very Strong Agreement","Slight Agreement","Very Strong Disagreement","Neither Agreement nor Disagreement","Strong Agreement","Neither Agreement nor Disagreement","Strong Agreement","Slight Disagreement","Very Strong Agreement"
"27","A3D1PXOYFFN1MM:32ZKVD547GT8FPNUG2FQULU8BDE3B6","practice",3,3,3,"NA","<p style=""font-size:100px""><b>B</b></p><p style=""position: absolute; top: 30px; right: 30px; text-align:right; font-size:50px"""">N = 3</p>","B",0,73,104,1,"agree",8,14,14,19,14,"36","Male","No","Strong Agreement","Neither Agreement nor Disagreement","Slight Disagreement","Moderate Agreement","Very Strong Agreement","Slight Agreement","Very Strong Agreement","Strong Agreement","Neither Agreement nor Disagreement","Very Strong Agreement","Slight Agreement","Very Strong Disagreement","Neither Agreement nor Disagreement","Strong Agreement","Neither Agreement nor Disagreement","Strong Agreement","Slight Disagreement","Very Strong Agreement"
"28","A3D1PXOYFFN1MM:32ZKVD547GT8FPNUG2FQULU8BDE3B6","practice",3,4,3,"NA","<p style=""font-size:100px""><b>v</b></p><p style=""position: absolute; top: 30px; right: 30px; text-align:right; font-size:50px"""">N = 3</p>","v",1,73,86,0,"agree",8,14,14,19,14,"36","Male","No","Strong Agreement","Neither Agreement nor Disagreement","Slight Disagreement","Moderate Agreement","Very Strong Agreement","Slight Agreement","Very Strong Agreement","Strong Agreement","Neither Agreement nor Disagreement","Very Strong Agreement","Slight Agreement","Very Strong Disagreement","Neither Agreement nor Disagreement","Strong Agreement","Neither Agreement nor Disagreement","Strong Agreement","Slight Disagreement","Very Strong Agreement"
"29","A3D1PXOYFFN1MM:32ZKVD547GT8FPNUG2FQULU8BDE3B6","practice",3,5,3,"NA","<p style=""font-size:100px""><b>T</b></p><p style=""position: absolute; top: 30px; right: 30px; text-align:right; font-size:50px"""">N = 3</p>","T",1,73,75,0,"agree",8,14,14,19,14,"36","Male","No","Strong Agreement","Neither Agreement nor Disagreement","Slight Disagreement","Moderate Agreement","Very Strong Agreement","Slight Agreement","Very Strong Agreement","Strong Agreement","Neither Agreement nor Disagreement","Very Strong Agreement","Slight Agreement","Very Strong Disagreement","Neither Agreement nor Disagreement","Strong Agreement","Neither Agreement nor Disagreement","Strong Agreement","Slight Disagreement","Very Strong Agreement"
"30","A3D1PXOYFFN1MM:32ZKVD547GT8FPNUG2FQULU8BDE3B6","practice",3,6,3,"NA","<p style=""font-size:100px""><b>V</b></p><p style=""position: absolute; top: 30px; right: 30px; text-align:right; font-size:50px"""">N = 3</p>","V",0,73,515,1,"agree",8,14,14,19,14,"36","Male","No","Strong Agreement","Neither Agreement nor Disagreement","Slight Disagreement","Moderate Agreement","Very Strong Agreement","Slight Agreement","Very Strong Agreement","Strong Agreement","Neither Agreement nor Disagreement","Very Strong Agreement","Slight Agreement","Very Strong Disagreement","Neither Agreement nor Disagreement","Strong Agreement","Neither Agreement nor Disagreement","Strong Agreement","Slight Disagreement","Very Strong Agreement"
"31","A3D1PXOYFFN1MM:32ZKVD547GT8FPNUG2FQULU8BDE3B6","practice",3,7,3,"NA","<p style=""font-size:100px""><b>P</b></p><p style=""position: absolute; top: 30px; right: 30px; text-align:right; font-size:50px"""">N = 3</p>","P",0,73,271,1,"agree",8,14,14,19,14,"36","Male","No","Strong Agreement","Neither Agreement nor Disagreement","Slight Disagreement","Moderate Agreement","Very Strong Agreement","Slight Agreement","Very Strong Agreement","Strong Agreement","Neither Agreement nor Disagreement","Very Strong Agreement","Slight Agreement","Very Strong Disagreement","Neither Agreement nor Disagreement","Strong Agreement","Neither Agreement nor Disagreement","Strong Agreement","Slight Disagreement","Very Strong Agreement"
"32","A3D1PXOYFFN1MM:32ZKVD547GT8FPNUG2FQULU8BDE3B6","practice",3,8,3,"NA","<p style=""font-size:100px""><b>p</b></p><p style=""position: absolute; top: 30px; right: 30px; text-align:right; font-size:50px"""">N = 3</p>","p",0,73,151,1,"agree",8,14,14,19,14,"36","Male","No","Strong Agreement","Neither Agreement nor Disagreement","Slight Disagreement","Moderate Agreement","Very Strong Agreement","Slight Agreement","Very Strong Agreement","Strong Agreement","Neither Agreement nor Disagreement","Very Strong Agreement","Slight Agreement","Very Strong Disagreement","Neither Agreement nor Disagreement","Strong Agreement","Neither Agreement nor Disagreement","Strong Agreement","Slight Disagreement","Very Strong Agreement"
"33","A3D1PXOYFFN1MM:32ZKVD547GT8FPNUG2FQULU8BDE3B6","practice",3,9,3,"NA","<p style=""font-size:100px""><b>p</b></p><p style=""position: absolute; top: 30px; right: 30px; text-align:right; font-size:50px"""">N = 3</p>","p",0,73,16,1,"agree",8,14,14,19,14,"36","Male","No","Strong Agreement","Neither Agreement nor Disagreement","Slight Disagreement","Moderate Agreement","Very Strong Agreement","Slight Agreement","Very Strong Agreement","Strong Agreement","Neither Agreement nor Disagreement","Very Strong Agreement","Slight Agreement","Very Strong Disagreement","Neither Agreement nor Disagreement","Strong Agreement","Neither Agreement nor Disagreement","Strong Agreement","Slight Disagreement","Very Strong Agreement"
"34","A3D1PXOYFFN1MM:32ZKVD547GT8FPNUG2FQULU8BDE3B6","practice",3,10,3,"NA","<p style=""font-size:100px""><b>P</b></p><p style=""position: absolute; top: 30px; right: 30px; text-align:right; font-size:50px"""">N = 3</p>","P",1,73,476,0,"agree",8,14,14,19,14,"36","Male","No","Strong Agreement","Neither Agreement nor Disagreement","Slight Disagreement","Moderate Agreement","Very Strong Agreement","Slight Agreement","Very Strong Agreement","Strong Agreement","Neither Agreement nor Disagreement","Very Strong Agreement","Slight Agreement","Very Strong Disagreement","Neither Agreement nor Disagreement","Strong Agreement","Neither Agreement nor Disagreement","Strong Agreement","Slight Disagreement","Very Strong Agreement"
"35","A3D1PXOYFFN1MM:32ZKVD547GT8FPNUG2FQULU8BDE3B6","practice",3,11,3,"NA","<p style=""font-size:100px""><b>b</b></p><p style=""position: absolute; top: 30px; right: 30px; text-align:right; font-size:50px"""">N = 3</p>","b",0,73,306,1,"agree",8,14,14,19,14,"36","Male","No","Strong Agreement","Neither Agreement nor Disagreement","Slight Disagreement","Moderate Agreement","Very Strong Agreement","Slight Agreement","Very Strong Agreement","Strong Agreement","Neither Agreement nor Disagreement","Very Strong Agreement","Slight Agreement","Very Strong Disagreement","Neither Agreement nor Disagreement","Strong Agreement","Neither Agreement nor Disagreement","Strong Agreement","Slight Disagreement","Very Strong Agreement"
"36","A3D1PXOYFFN1MM:32ZKVD547GT8FPNUG2FQULU8BDE3B6","practice",3,12,3,"NA","<p style=""font-size:100px""><b>p</b></p><p style=""position: absolute; top: 30px; right: 30px; text-align:right; font-size:50px"""">N = 3</p>","p",1,73,254,0,"agree",8,14,14,19,14,"36","Male","No","Strong Agreement","Neither Agreement nor Disagreement","Slight Disagreement","Moderate Agreement","Very Strong Agreement","Slight Agreement","Very Strong Agreement","Strong Agreement","Neither Agreement nor Disagreement","Very Strong Agreement","Slight Agreement","Very Strong Disagreement","Neither Agreement nor Disagreement","Strong Agreement","Neither Agreement nor Disagreement","Strong Agreement","Slight Disagreement","Very Strong Agreement"
"37","A3D1PXOYFFN1MM:32ZKVD547GT8FPNUG2FQULU8BDE3B6","1",1,1,2,"5","<p style=""font-size:100px""><b>B</b></p><p style=""position: absolute; top: 30px; right: 30px; text-align:right; font-size:50px"""">N = 2</p>","B",0,NA,NA,0,"agree",8,14,14,19,14,"36","Male","No","Strong Agreement","Neither Agreement nor Disagreement","Slight Disagreement","Moderate Agreement","Very Strong Agreement","Slight Agreement","Very Strong Agreement","Strong Agreement","Neither Agreement nor Disagreement","Very Strong Agreement","Slight Agreement","Very Strong Disagreement","Neither Agreement nor Disagreement","Strong Agreement","Neither Agreement nor Disagreement","Strong Agreement","Slight Disagreement","Very Strong Agreement"
"38","A3D1PXOYFFN1MM:32ZKVD547GT8FPNUG2FQULU8BDE3B6","1",1,2,2,"5","<p style=""font-size:100px""><b>p</b></p><p style=""position: absolute; top: 30px; right: 30px; text-align:right; font-size:50px"""">N = 2</p>","p",0,NA,NA,0,"agree",8,14,14,19,14,"36","Male","No","Strong Agreement","Neither Agreement nor Disagreement","Slight Disagreement","Moderate Agreement","Very Strong Agreement","Slight Agreement","Very Strong Agreement","Strong Agreement","Neither Agreement nor Disagreement","Very Strong Agreement","Slight Agreement","Very Strong Disagreement","Neither Agreement nor Disagreement","Strong Agreement","Neither Agreement nor Disagreement","Strong Agreement","Slight Disagreement","Very Strong Agreement"
"39","A3D1PXOYFFN1MM:32ZKVD547GT8FPNUG2FQULU8BDE3B6","1",1,3,2,"5","<p style=""font-size:100px""><b>B</b></p><p style=""position: absolute; top: 30px; right: 30px; text-align:right; font-size:50px"""">N = 2</p>","B",0,NA,NA,0,"agree",8,14,14,19,14,"36","Male","No","Strong Agreement","Neither Agreement nor Disagreement","Slight Disagreement","Moderate Agreement","Very Strong Agreement","Slight Agreement","Very Strong Agreement","Strong Agreement","Neither Agreement nor Disagreement","Very Strong Agreement","Slight Agreement","Very Strong Disagreement","Neither Agreement nor Disagreement","Strong Agreement","Neither Agreement nor Disagreement","Strong Agreement","Slight Disagreement","Very Strong Agreement"
"40","A3D1PXOYFFN1MM:32ZKVD547GT8FPNUG2FQULU8BDE3B6","1",1,4,2,"5","<p style=""font-size:100px""><b>b</b></p><p style=""position: absolute; top: 30px; right: 30px; text-align:right; font-size:50px"""">N = 2</p>","b",0,NA,NA,0,"agree",8,14,14,19,14,"36","Male","No","Strong Agreement","Neither Agreement nor Disagreement","Slight Disagreement","Moderate Agreement","Very Strong Agreement","Slight Agreement","Very Strong Agreement","Strong Agreement","Neither Agreement nor Disagreement","Very Strong Agreement","Slight Agreement","Very Strong Disagreement","Neither Agreement nor Disagreement","Strong Agreement","Neither Agreement nor Disagreement","Strong Agreement","Slight Disagreement","Very Strong Agreement"
"41","A3D1PXOYFFN1MM:32ZKVD547GT8FPNUG2FQULU8BDE3B6","1",1,5,2,"5","<p style=""font-size:100px""><b>B</b></p><p style=""position: absolute; top: 30px; right: 30px; text-align:right; font-size:50px"""">N = 2</p>","B",0,NA,NA,0,"agree",8,14,14,19,14,"36","Male","No","Strong Agreement","Neither Agreement nor Disagreement","Slight Disagreement","Moderate Agreement","Very Strong Agreement","Slight Agreement","Very Strong Agreement","Strong Agreement","Neither Agreement nor Disagreement","Very Strong Agreement","Slight Agreement","Very Strong Disagreement","Neither Agreement nor Disagreement","Strong Agreement","Neither Agreement nor Disagreement","Strong Agreement","Slight Disagreement","Very Strong Agreement"
"42","A3D1PXOYFFN1MM:32ZKVD547GT8FPNUG2FQULU8BDE3B6","1",1,6,2,"5","<p style=""font-size:100px""><b>P</b></p><p style=""position: absolute; top: 30px; right: 30px; text-align:right; font-size:50px"""">N = 2</p>","P",0,NA,NA,0,"agree",8,14,14,19,14,"36","Male","No","Strong Agreement","Neither Agreement nor Disagreement","Slight Disagreement","Moderate Agreement","Very Strong Agreement","Slight Agreement","Very Strong Agreement","Strong Agreement","Neither Agreement nor Disagreement","Very Strong Agreement","Slight Agreement","Very Strong Disagreement","Neither Agreement nor Disagreement","Strong Agreement","Neither Agreement nor Disagreement","Strong Agreement","Slight Disagreement","Very Strong Agreement"
"43","A3D1PXOYFFN1MM:32ZKVD547GT8FPNUG2FQULU8BDE3B6","1",1,7,2,"5","<p style=""font-size:100px""><b>V</b></p><p style=""position: absolute; top: 30px; right: 30px; text-align:right; font-size:50px"""">N = 2</p>","V",0,NA,NA,0,"agree",8,14,14,19,14,"36","Male","No","Strong Agreement","Neither Agreement nor Disagreement","Slight Disagreement","Moderate Agreement","Very Strong Agreement","Slight Agreement","Very Strong Agreement","Strong Agreement","Neither Agreement nor Disagreement","Very Strong Agreement","Slight Agreement","Very Strong Disagreement","Neither Agreement nor Disagreement","Strong Agreement","Neither Agreement nor Disagreement","Strong Agreement","Slight Disagreement","Very Strong Agreement"
"44","A3D1PXOYFFN1MM:32ZKVD547GT8FPNUG2FQULU8BDE3B6","1",1,8,2,"5","<p style=""font-size:100px""><b>P</b></p><p style=""position: absolute; top: 30px; right: 30px; text-align:right; font-size:50px"""">N = 2</p>","P",0,NA,NA,0,"agree",8,14,14,19,14,"36","Male","No","Strong Agreement","Neither Agreement nor Disagreement","Slight Disagreement","Moderate Agreement","Very Strong Agreement","Slight Agreement","Very Strong Agreement","Strong Agreement","Neither Agreement nor Disagreement","Very Strong Agreement","Slight Agreement","Very Strong Disagreement","Neither Agreement nor Disagreement","Strong Agreement","Neither Agreement nor Disagreement","Strong Agreement","Slight Disagreement","Very Strong Agreement"
"45","A3D1PXOYFFN1MM:32ZKVD547GT8FPNUG2FQULU8BDE3B6","1",1,9,2,"5","<p style=""font-size:100px""><b>T</b></p><p style=""position: absolute; top: 30px; right: 30px; text-align:right; font-size:50px"""">N = 2</p>","T",0,NA,NA,0,"agree",8,14,14,19,14,"36","Male","No","Strong Agreement","Neither Agreement nor Disagreement","Slight Disagreement","Moderate Agreement","Very Strong Agreement","Slight Agreement","Very Strong Agreement","Strong Agreement","Neither Agreement nor Disagreement","Very Strong Agreement","Slight Agreement","Very Strong Disagreement","Neither Agreement nor Disagreement","Strong Agreement","Neither Agreement nor Disagreement","Strong Agreement","Slight Disagreement","Very Strong Agreement"
"46","A3D1PXOYFFN1MM:32ZKVD547GT8FPNUG2FQULU8BDE3B6","1",1,10,2,"5","<p style=""font-size:100px""><b>v</b></p><p style=""position: absolute; top: 30px; right: 30px; text-align:right; font-size:50px"""">N = 2</p>","v",0,NA,NA,0,"agree",8,14,14,19,14,"36","Male","No","Strong Agreement","Neither Agreement nor Disagreement","Slight Disagreement","Moderate Agreement","Very Strong Agreement","Slight Agreement","Very Strong Agreement","Strong Agreement","Neither Agreement nor Disagreement","Very Strong Agreement","Slight Agreement","Very Strong Disagreement","Neither Agreement nor Disagreement","Strong Agreement","Neither Agreement nor Disagreement","Strong Agreement","Slight Disagreement","Very Strong Agreement"
"47","A3D1PXOYFFN1MM:32ZKVD547GT8FPNUG2FQULU8BDE3B6","1",1,11,2,"5","<p style=""font-size:100px""><b>T</b></p><p style=""position: absolute; top: 30px; right: 30px; text-align:right; font-size:50px"""">N = 2</p>","T",0,NA,NA,0,"agree",8,14,14,19,14,"36","Male","No","Strong Agreement","Neither Agreement nor Disagreement","Slight Disagreement","Moderate Agreement","Very Strong Agreement","Slight Agreement","Very Strong Agreement","Strong Agreement","Neither Agreement nor Disagreement","Very Strong Agreement","Slight Agreement","Very Strong Disagreement","Neither Agreement nor Disagreement","Strong Agreement","Neither Agreement nor Disagreement","Strong Agreement","Slight Disagreement","Very Strong Agreement"
"48","A3D1PXOYFFN1MM:32ZKVD547GT8FPNUG2FQULU8BDE3B6","1",1,12,2,"5","<p style=""font-size:100px""><b>t</b></p><p style=""position: absolute; top: 30px; right: 30px; text-align:right; font-size:50px"""">N = 2</p>","t",0,NA,NA,0,"agree",8,14,14,19,14,"36","Male","No","Strong Agreement","Neither Agreement nor Disagreement","Slight Disagreement","Moderate Agreement","Very Strong Agreement","Slight Agreement","Very Strong Agreement","Strong Agreement","Neither Agreement nor Disagreement","Very Strong Agreement","Slight Agreement","Very Strong Disagreement","Neither Agreement nor Disagreement","Strong Agreement","Neither Agreement nor Disagreement","Strong Agreement","Slight Disagreement","Very Strong Agreement"
"49","A3D1PXOYFFN1MM:32ZKVD547GT8FPNUG2FQULU8BDE3B6","1",2,1,2,"5","<p style=""font-size:100px""><b>G</b></p><p style=""position: absolute; top: 30px; right: 30px; text-align:right; font-size:50px"""">N = 2</p>","G",0,NA,NA,0,"agree",9,14,8,17,14,"36","Male","No","Strong Agreement","Neither Agreement nor Disagreement","Slight Disagreement","Moderate Agreement","Very Strong Agreement","Slight Agreement","Very Strong Agreement","Strong Agreement","Neither Agreement nor Disagreement","Very Strong Agreement","Slight Agreement","Very Strong Disagreement","Neither Agreement nor Disagreement","Strong Agreement","Neither Agreement nor Disagreement","Strong Agreement","Slight Disagreement","Very Strong Agreement"
"50","A3D1PXOYFFN1MM:32ZKVD547GT8FPNUG2FQULU8BDE3B6","1",2,2,2,"5","<p style=""font-size:100px""><b>b</b></p><p style=""position: absolute; top: 30px; right: 30px; text-align:right; font-size:50px"""">N = 2</p>","b",0,NA,NA,0,"agree",9,14,8,17,14,"36","Male","No","Strong Agreement","Neither Agreement nor Disagreement","Slight Disagreement","Moderate Agreement","Very Strong Agreement","Slight Agreement","Very Strong Agreement","Strong Agreement","Neither Agreement nor Disagreement","Very Strong Agreement","Slight Agreement","Very Strong Disagreement","Neither Agreement nor Disagreement","Strong Agreement","Neither Agreement nor Disagreement","Strong Agreement","Slight Disagreement","Very Strong Agreement"
"51","A3D1PXOYFFN1MM:32ZKVD547GT8FPNUG2FQULU8BDE3B6","1",2,3,2,"5","<p style=""font-size:100px""><b>P</b></p><p style=""position: absolute; top: 30px; right: 30px; text-align:right; font-size:50px"""">N = 2</p>","P",0,NA,NA,0,"agree",9,14,8,17,14,"36","Male","No","Strong Agreement","Neither Agreement nor Disagreement","Slight Disagreement","Moderate Agreement","Very Strong Agreement","Slight Agreement","Very Strong Agreement","Strong Agreement","Neither Agreement nor Disagreement","Very Strong Agreement","Slight Agreement","Very Strong Disagreement","Neither Agreement nor Disagreement","Strong Agreement","Neither Agreement nor Disagreement","Strong Agreement","Slight Disagreement","Very Strong Agreement"
"52","A3D1PXOYFFN1MM:32ZKVD547GT8FPNUG2FQULU8BDE3B6","1",2,4,2,"5","<p style=""font-size:100px""><b>b</b></p><p style=""position: absolute; top: 30px; right: 30px; text-align:right; font-size:50px"""">N = 2</p>","b",0,NA,NA,0,"agree",9,14,8,17,14,"36","Male","No","Strong Agreement","Neither Agreement nor Disagreement","Slight Disagreement","Moderate Agreement","Very Strong Agreement","Slight Agreement","Very Strong Agreement","Strong Agreement","Neither Agreement nor Disagreement","Very Strong Agreement","Slight Agreement","Very Strong Disagreement","Neither Agreement nor Disagreement","Strong Agreement","Neither Agreement nor Disagreement","Strong Agreement","Slight Disagreement","Very Strong Agreement"
"53","A3D1PXOYFFN1MM:32ZKVD547GT8FPNUG2FQULU8BDE3B6","1",2,5,2,"5","<p style=""font-size:100px""><b>P</b></p><p style=""position: absolute; top: 30px; right: 30px; text-align:right; font-size:50px"""">N = 2</p>","P",0,NA,NA,0,"agree",9,14,8,17,14,"36","Male","No","Strong Agreement","Neither Agreement nor Disagreement","Slight Disagreement","Moderate Agreement","Very Strong Agreement","Slight Agreement","Very Strong Agreement","Strong Agreement","Neither Agreement nor Disagreement","Very Strong Agreement","Slight Agreement","Very Strong Disagreement","Neither Agreement nor Disagreement","Strong Agreement","Neither Agreement nor Disagreement","Strong Agreement","Slight Disagreement","Very Strong Agreement"
"54","A3D1PXOYFFN1MM:32ZKVD547GT8FPNUG2FQULU8BDE3B6","1",2,6,2,"5","<p style=""font-size:100px""><b>b</b></p><p style=""position: absolute; top: 30px; right: 30px; text-align:right; font-size:50px"""">N = 2</p>","b",0,NA,NA,0,"agree",9,14,8,17,14,"36","Male","No","Strong Agreement","Neither Agreement nor Disagreement","Slight Disagreement","Moderate Agreement","Very Strong Agreement","Slight Agreement","Very Strong Agreement","Strong Agreement","Neither Agreement nor Disagreement","Very Strong Agreement","Slight Agreement","Very Strong Disagreement","Neither Agreement nor Disagreement","Strong Agreement","Neither Agreement nor Disagreement","Strong Agreement","Slight Disagreement","Very Strong Agreement"
"55","A3D1PXOYFFN1MM:32ZKVD547GT8FPNUG2FQULU8BDE3B6","1",2,7,2,"5","<p style=""font-size:100px""><b>t</b></p><p style=""position: absolute; top: 30px; right: 30px; text-align:right; font-size:50px"""">N = 2</p>","t",0,NA,NA,0,"agree",9,14,8,17,14,"36","Male","No","Strong Agreement","Neither Agreement nor Disagreement","Slight Disagreement","Moderate Agreement","Very Strong Agreement","Slight Agreement","Very Strong Agreement","Strong Agreement","Neither Agreement nor Disagreement","Very Strong Agreement","Slight Agreement","Very Strong Disagreement","Neither Agreement nor Disagreement","Strong Agreement","Neither Agreement nor Disagreement","Strong Agreement","Slight Disagreement","Very Strong Agreement"
"56","A3D1PXOYFFN1MM:32ZKVD547GT8FPNUG2FQULU8BDE3B6","1",2,8,2,"5","<p style=""font-size:100px""><b>b</b></p><p style=""position: absolute; top: 30px; right: 30px; text-align:right; font-size:50px"""">N = 2</p>","b",0,NA,NA,0,"agree",9,14,8,17,14,"36","Male","No","Strong Agreement","Neither Agreement nor Disagreement","Slight Disagreement","Moderate Agreement","Very Strong Agreement","Slight Agreement","Very Strong Agreement","Strong Agreement","Neither Agreement nor Disagreement","Very Strong Agreement","Slight Agreement","Very Strong Disagreement","Neither Agreement nor Disagreement","Strong Agreement","Neither Agreement nor Disagreement","Strong Agreement","Slight Disagreement","Very Strong Agreement"
"57","A3D1PXOYFFN1MM:32ZKVD547GT8FPNUG2FQULU8BDE3B6","1",2,9,2,"5","<p style=""font-size:100px""><b>d</b></p><p style=""position: absolute; top: 30px; right: 30px; text-align:right; font-size:50px"""">N = 2</p>","d",0,NA,NA,0,"agree",9,14,8,17,14,"36","Male","No","Strong Agreement","Neither Agreement nor Disagreement","Slight Disagreement","Moderate Agreement","Very Strong Agreement","Slight Agreement","Very Strong Agreement","Strong Agreement","Neither Agreement nor Disagreement","Very Strong Agreement","Slight Agreement","Very Strong Disagreement","Neither Agreement nor Disagreement","Strong Agreement","Neither Agreement nor Disagreement","Strong Agreement","Slight Disagreement","Very Strong Agreement"
"58","A3D1PXOYFFN1MM:32ZKVD547GT8FPNUG2FQULU8BDE3B6","1",2,10,2,"5","<p style=""font-size:100px""><b>T</b></p><p style=""position: absolute; top: 30px; right: 30px; text-align:right; font-size:50px"""">N = 2</p>","T",0,NA,NA,0,"agree",9,14,8,17,14,"36","Male","No","Strong Agreement","Neither Agreement nor Disagreement","Slight Disagreement","Moderate Agreement","Very Strong Agreement","Slight Agreement","Very Strong Agreement","Strong Agreement","Neither Agreement nor Disagreement","Very Strong Agreement","Slight Agreement","Very Strong Disagreement","Neither Agreement nor Disagreement","Strong Agreement","Neither Agreement nor Disagreement","Strong Agreement","Slight Disagreement","Very Strong Agreement"
"59","A3D1PXOYFFN1MM:32ZKVD547GT8FPNUG2FQULU8BDE3B6","1",2,11,2,"5","<p style=""font-size:100px""><b>t</b></p><p style=""position: absolute; top: 30px; right: 30px; text-align:right; font-size:50px"""">N = 2</p>","t",0,NA,NA,0,"agree",9,14,8,17,14,"36","Male","No","Strong Agreement","Neither Agreement nor Disagreement","Slight Disagreement","Moderate Agreement","Very Strong Agreement","Slight Agreement","Very Strong Agreement","Strong Agreement","Neither Agreement nor Disagreement","Very Strong Agreement","Slight Agreement","Very Strong Disagreement","Neither Agreement nor Disagreement","Strong Agreement","Neither Agreement nor Disagreement","Strong Agreement","Slight Disagreement","Very Strong Agreement"
"60","A3D1PXOYFFN1MM:32ZKVD547GT8FPNUG2FQULU8BDE3B6","1",2,12,2,"5","<p style=""font-size:100px""><b>D</b></p><p style=""position: absolute; top: 30px; right: 30px; text-align:right; font-size:50px"""">N = 2</p>","D",0,NA,NA,0,"agree",9,14,8,17,14,"36","Male","No","Strong Agreement","Neither Agreement nor Disagreement","Slight Disagreement","Moderate Agreement","Very Strong Agreement","Slight Agreement","Very Strong Agreement","Strong Agreement","Neither Agreement nor Disagreement","Very Strong Agreement","Slight Agreement","Very Strong Disagreement","Neither Agreement nor Disagreement","Strong Agreement","Neither Agreement nor Disagreement","Strong Agreement","Slight Disagreement","Very Strong Agreement"
"61","A3D1PXOYFFN1MM:32ZKVD547GT8FPNUG2FQULU8BDE3B6","1",3,1,1,"50","<p style=""font-size:100px""><b>b</b></p><p style=""position: absolute; top: 30px; right: 30px; text-align:right; font-size:50px"""">N = 1</p>","b",0,NA,NA,0,"agree",19,14,16,8,16,"36","Male","No","Strong Agreement","Neither Agreement nor Disagreement","Slight Disagreement","Moderate Agreement","Very Strong Agreement","Slight Agreement","Very Strong Agreement","Strong Agreement","Neither Agreement nor Disagreement","Very Strong Agreement","Slight Agreement","Very Strong Disagreement","Neither Agreement nor Disagreement","Strong Agreement","Neither Agreement nor Disagreement","Strong Agreement","Slight Disagreement","Very Strong Agreement"
"62","A3D1PXOYFFN1MM:32ZKVD547GT8FPNUG2FQULU8BDE3B6","1",3,2,1,"50","<p style=""font-size:100px""><b>d</b></p><p style=""position: absolute; top: 30px; right: 30px; text-align:right; font-size:50px"""">N = 1</p>","d",0,NA,NA,0,"agree",19,14,16,8,16,"36","Male","No","Strong Agreement","Neither Agreement nor Disagreement","Slight Disagreement","Moderate Agreement","Very Strong Agreement","Slight Agreement","Very Strong Agreement","Strong Agreement","Neither Agreement nor Disagreement","Very Strong Agreement","Slight Agreement","Very Strong Disagreement","Neither Agreement nor Disagreement","Strong Agreement","Neither Agreement nor Disagreement","Strong Agreement","Slight Disagreement","Very Strong Agreement"
"63","A3D1PXOYFFN1MM:32ZKVD547GT8FPNUG2FQULU8BDE3B6","1",3,3,1,"50","<p style=""font-size:100px""><b>V</b></p><p style=""position: absolute; top: 30px; right: 30px; text-align:right; font-size:50px"""">N = 1</p>","V",0,NA,NA,0,"agree",19,14,16,8,16,"36","Male","No","Strong Agreement","Neither Agreement nor Disagreement","Slight Disagreement","Moderate Agreement","Very Strong Agreement","Slight Agreement","Very Strong Agreement","Strong Agreement","Neither Agreement nor Disagreement","Very Strong Agreement","Slight Agreement","Very Strong Disagreement","Neither Agreement nor Disagreement","Strong Agreement","Neither Agreement nor Disagreement","Strong Agreement","Slight Disagreement","Very Strong Agreement"
"64","A3D1PXOYFFN1MM:32ZKVD547GT8FPNUG2FQULU8BDE3B6","1",3,4,1,"50","<p style=""font-size:100px""><b>D</b></p><p style=""position: absolute; top: 30px; right: 30px; text-align:right; font-size:50px"""">N = 1</p>","D",0,NA,NA,0,"agree",19,14,16,8,16,"36","Male","No","Strong Agreement","Neither Agreement nor Disagreement","Slight Disagreement","Moderate Agreement","Very Strong Agreement","Slight Agreement","Very Strong Agreement","Strong Agreement","Neither Agreement nor Disagreement","Very Strong Agreement","Slight Agreement","Very Strong Disagreement","Neither Agreement nor Disagreement","Strong Agreement","Neither Agreement nor Disagreement","Strong Agreement","Slight Disagreement","Very Strong Agreement"
"65","A3D1PXOYFFN1MM:32ZKVD547GT8FPNUG2FQULU8BDE3B6","1",3,5,1,"50","<p style=""font-size:100px""><b>D</b></p><p style=""position: absolute; top: 30px; right: 30px; text-align:right; font-size:50px"""">N = 1</p>","D",0,NA,NA,0,"agree",19,14,16,8,16,"36","Male","No","Strong Agreement","Neither Agreement nor Disagreement","Slight Disagreement","Moderate Agreement","Very Strong Agreement","Slight Agreement","Very Strong Agreement","Strong Agreement","Neither Agreement nor Disagreement","Very Strong Agreement","Slight Agreement","Very Strong Disagreement","Neither Agreement nor Disagreement","Strong Agreement","Neither Agreement nor Disagreement","Strong Agreement","Slight Disagreement","Very Strong Agreement"
"66","A3D1PXOYFFN1MM:32ZKVD547GT8FPNUG2FQULU8BDE3B6","1",3,6,1,"50","<p style=""font-size:100px""><b>D</b></p><p style=""position: absolute; top: 30px; right: 30px; text-align:right; font-size:50px"""">N = 1</p>","D",0,NA,NA,0,"agree",19,14,16,8,16,"36","Male","No","Strong Agreement","Neither Agreement nor Disagreement","Slight Disagreement","Moderate Agreement","Very Strong Agreement","Slight Agreement","Very Strong Agreement","Strong Agreement","Neither Agreement nor Disagreement","Very Strong Agreement","Slight Agreement","Very Strong Disagreement","Neither Agreement nor Disagreement","Strong Agreement","Neither Agreement nor Disagreement","Strong Agreement","Slight Disagreement","Very Strong Agreement"
"67","A3D1PXOYFFN1MM:32ZKVD547GT8FPNUG2FQULU8BDE3B6","1",3,7,1,"50","<p style=""font-size:100px""><b>D</b></p><p style=""position: absolute; top: 30px; right: 30px; text-align:right; font-size:50px"""">N = 1</p>","D",0,73,319,1,"agree",19,14,16,8,16,"36","Male","No","Strong Agreement","Neither Agreement nor Disagreement","Slight Disagreement","Moderate Agreement","Very Strong Agreement","Slight Agreement","Very Strong Agreement","Strong Agreement","Neither Agreement nor Disagreement","Very Strong Agreement","Slight Agreement","Very Strong Disagreement","Neither Agreement nor Disagreement","Strong Agreement","Neither Agreement nor Disagreement","Strong Agreement","Slight Disagreement","Very Strong Agreement"
"68","A3D1PXOYFFN1MM:32ZKVD547GT8FPNUG2FQULU8BDE3B6","1",3,8,1,"50","<p style=""font-size:100px""><b>t</b></p><p style=""position: absolute; top: 30px; right: 30px; text-align:right; font-size:50px"""">N = 1</p>","t",0,73,207,1,"agree",19,14,16,8,16,"36","Male","No","Strong Agreement","Neither Agreement nor Disagreement","Slight Disagreement","Moderate Agreement","Very Strong Agreement","Slight Agreement","Very Strong Agreement","Strong Agreement","Neither Agreement nor Disagreement","Very Strong Agreement","Slight Agreement","Very Strong Disagreement","Neither Agreement nor Disagreement","Strong Agreement","Neither Agreement nor Disagreement","Strong Agreement","Slight Disagreement","Very Strong Agreement"
"69","A3D1PXOYFFN1MM:32ZKVD547GT8FPNUG2FQULU8BDE3B6","1",3,9,1,"50","<p style=""font-size:100px""><b>t</b></p><p style=""position: absolute; top: 30px; right: 30px; text-align:right; font-size:50px"""">N = 1</p>","t",0,73,518,1,"agree",19,14,16,8,16,"36","Male","No","Strong Agreement","Neither Agreement nor Disagreement","Slight Disagreement","Moderate Agreement","Very Strong Agreement","Slight Agreement","Very Strong Agreement","Strong Agreement","Neither Agreement nor Disagreement","Very Strong Agreement","Slight Agreement","Very Strong Disagreement","Neither Agreement nor Disagreement","Strong Agreement","Neither Agreement nor Disagreement","Strong Agreement","Slight Disagreement","Very Strong Agreement"
"70","A3D1PXOYFFN1MM:32ZKVD547GT8FPNUG2FQULU8BDE3B6","1",3,10,1,"50","<p style=""font-size:100px""><b>g</b></p><p style=""position: absolute; top: 30px; right: 30px; text-align:right; font-size:50px"""">N = 1</p>","g",0,73,788,1,"agree",19,14,16,8,16,"36","Male","No","Strong Agreement","Neither Agreement nor Disagreement","Slight Disagreement","Moderate Agreement","Very Strong Agreement","Slight Agreement","Very Strong Agreement","Strong Agreement","Neither Agreement nor Disagreement","Very Strong Agreement","Slight Agreement","Very Strong Disagreement","Neither Agreement nor Disagreement","Strong Agreement","Neither Agreement nor Disagreement","Strong Agreement","Slight Disagreement","Very Strong Agreement"
"71","A3D1PXOYFFN1MM:32ZKVD547GT8FPNUG2FQULU8BDE3B6","1",3,11,1,"50","<p style=""font-size:100px""><b>B</b></p><p style=""position: absolute; top: 30px; right: 30px; text-align:right; font-size:50px"""">N = 1</p>","B",0,73,71,1,"agree",19,14,16,8,16,"36","Male","No","Strong Agreement","Neither Agreement nor Disagreement","Slight Disagreement","Moderate Agreement","Very Strong Agreement","Slight Agreement","Very Strong Agreement","Strong Agreement","Neither Agreement nor Disagreement","Very Strong Agreement","Slight Agreement","Very Strong Disagreement","Neither Agreement nor Disagreement","Strong Agreement","Neither Agreement nor Disagreement","Strong Agreement","Slight Disagreement","Very Strong Agreement"
"72","A3D1PXOYFFN1MM:32ZKVD547GT8FPNUG2FQULU8BDE3B6","1",3,12,1,"50","<p style=""font-size:100px""><b>V</b></p><p style=""position: absolute; top: 30px; right: 30px; text-align:right; font-size:50px"""">N = 1</p>","V",0,73,108,1,"agree",19,14,16,8,16,"36","Male","No","Strong Agreement","Neither Agreement nor Disagreement","Slight Disagreement","Moderate Agreement","Very Strong Agreement","Slight Agreement","Very Strong Agreement","Strong Agreement","Neither Agreement nor Disagreement","Very Strong Agreement","Slight Agreement","Very Strong Disagreement","Neither Agreement nor Disagreement","Strong Agreement","Neither Agreement nor Disagreement","Strong Agreement","Slight Disagreement","Very Strong Agreement"
"73","A3D1PXOYFFN1MM:32ZKVD547GT8FPNUG2FQULU8BDE3B6","1",4,1,2,"50","<p style=""font-size:100px""><b>P</b></p><p style=""position: absolute; top: 30px; right: 30px; text-align:right; font-size:50px"""">N = 2</p>","P",0,NA,NA,0,"agree",5,14,6,15,6,"36","Male","No","Strong Agreement","Neither Agreement nor Disagreement","Slight Disagreement","Moderate Agreement","Very Strong Agreement","Slight Agreement","Very Strong Agreement","Strong Agreement","Neither Agreement nor Disagreement","Very Strong Agreement","Slight Agreement","Very Strong Disagreement","Neither Agreement nor Disagreement","Strong Agreement","Neither Agreement nor Disagreement","Strong Agreement","Slight Disagreement","Very Strong Agreement"
"74","A3D1PXOYFFN1MM:32ZKVD547GT8FPNUG2FQULU8BDE3B6","1",4,2,2,"50","<p style=""font-size:100px""><b>D</b></p><p style=""position: absolute; top: 30px; right: 30px; text-align:right; font-size:50px"""">N = 2</p>","D",0,NA,NA,0,"agree",5,14,6,15,6,"36","Male","No","Strong Agreement","Neither Agreement nor Disagreement","Slight Disagreement","Moderate Agreement","Very Strong Agreement","Slight Agreement","Very Strong Agreement","Strong Agreement","Neither Agreement nor Disagreement","Very Strong Agreement","Slight Agreement","Very Strong Disagreement","Neither Agreement nor Disagreement","Strong Agreement","Neither Agreement nor Disagreement","Strong Agreement","Slight Disagreement","Very Strong Agreement"
"75","A3D1PXOYFFN1MM:32ZKVD547GT8FPNUG2FQULU8BDE3B6","1",4,3,2,"50","<p style=""font-size:100px""><b>P</b></p><p style=""position: absolute; top: 30px; right: 30px; text-align:right; font-size:50px"""">N = 2</p>","P",0,NA,NA,0,"agree",5,14,6,15,6,"36","Male","No","Strong Agreement","Neither Agreement nor Disagreement","Slight Disagreement","Moderate Agreement","Very Strong Agreement","Slight Agreement","Very Strong Agreement","Strong Agreement","Neither Agreement nor Disagreement","Very Strong Agreement","Slight Agreement","Very Strong Disagreement","Neither Agreement nor Disagreement","Strong Agreement","Neither Agreement nor Disagreement","Strong Agreement","Slight Disagreement","Very Strong Agreement"
"76","A3D1PXOYFFN1MM:32ZKVD547GT8FPNUG2FQULU8BDE3B6","1",4,4,2,"50","<p style=""font-size:100px""><b>D</b></p><p style=""position: absolute; top: 30px; right: 30px; text-align:right; font-size:50px"""">N = 2</p>","D",0,NA,NA,0,"agree",5,14,6,15,6,"36","Male","No","Strong Agreement","Neither Agreement nor Disagreement","Slight Disagreement","Moderate Agreement","Very Strong Agreement","Slight Agreement","Very Strong Agreement","Strong Agreement","Neither Agreement nor Disagreement","Very Strong Agreement","Slight Agreement","Very Strong Disagreement","Neither Agreement nor Disagreement","Strong Agreement","Neither Agreement nor Disagreement","Strong Agreement","Slight Disagreement","Very Strong Agreement"
"77","A3D1PXOYFFN1MM:32ZKVD547GT8FPNUG2FQULU8BDE3B6","1",4,5,2,"50","<p style=""font-size:100px""><b>B</b></p><p style=""position: absolute; top: 30px; right: 30px; text-align:right; font-size:50px"""">N = 2</p>","B",0,73,587,1,"agree",5,14,6,15,6,"36","Male","No","Strong Agreement","Neither Agreement nor Disagreement","Slight Disagreement","Moderate Agreement","Very Strong Agreement","Slight Agreement","Very Strong Agreement","Strong Agreement","Neither Agreement nor Disagreement","Very Strong Agreement","Slight Agreement","Very Strong Disagreement","Neither Agreement nor Disagreement","Strong Agreement","Neither Agreement nor Disagreement","Strong Agreement","Slight Disagreement","Very Strong Agreement"
"78","A3D1PXOYFFN1MM:32ZKVD547GT8FPNUG2FQULU8BDE3B6","1",4,6,2,"50","<p style=""font-size:100px""><b>p</b></p><p style=""position: absolute; top: 30px; right: 30px; text-align:right; font-size:50px"""">N = 2</p>","p",0,NA,NA,0,"agree",5,14,6,15,6,"36","Male","No","Strong Agreement","Neither Agreement nor Disagreement","Slight Disagreement","Moderate Agreement","Very Strong Agreement","Slight Agreement","Very Strong Agreement","Strong Agreement","Neither Agreement nor Disagreement","Very Strong Agreement","Slight Agreement","Very Strong Disagreement","Neither Agreement nor Disagreement","Strong Agreement","Neither Agreement nor Disagreement","Strong Agreement","Slight Disagreement","Very Strong Agreement"
"79","A3D1PXOYFFN1MM:32ZKVD547GT8FPNUG2FQULU8BDE3B6","1",4,7,2,"50","<p style=""font-size:100px""><b>B</b></p><p style=""position: absolute; top: 30px; right: 30px; text-align:right; font-size:50px"""">N = 2</p>","B",0,NA,NA,0,"agree",5,14,6,15,6,"36","Male","No","Strong Agreement","Neither Agreement nor Disagreement","Slight Disagreement","Moderate Agreement","Very Strong Agreement","Slight Agreement","Very Strong Agreement","Strong Agreement","Neither Agreement nor Disagreement","Very Strong Agreement","Slight Agreement","Very Strong Disagreement","Neither Agreement nor Disagreement","Strong Agreement","Neither Agreement nor Disagreement","Strong Agreement","Slight Disagreement","Very Strong Agreement"
"80","A3D1PXOYFFN1MM:32ZKVD547GT8FPNUG2FQULU8BDE3B6","1",4,8,2,"50","<p style=""font-size:100px""><b>p</b></p><p style=""position: absolute; top: 30px; right: 30px; text-align:right; font-size:50px"""">N = 2</p>","p",0,NA,NA,0,"agree",5,14,6,15,6,"36","Male","No","Strong Agreement","Neither Agreement nor Disagreement","Slight Disagreement","Moderate Agreement","Very Strong Agreement","Slight Agreement","Very Strong Agreement","Strong Agreement","Neither Agreement nor Disagreement","Very Strong Agreement","Slight Agreement","Very Strong Disagreement","Neither Agreement nor Disagreement","Strong Agreement","Neither Agreement nor Disagreement","Strong Agreement","Slight Disagreement","Very Strong Agreement"
"81","A3D1PXOYFFN1MM:32ZKVD547GT8FPNUG2FQULU8BDE3B6","1",4,9,2,"50","<p style=""font-size:100px""><b>V</b></p><p style=""position: absolute; top: 30px; right: 30px; text-align:right; font-size:50px"""">N = 2</p>","V",0,NA,NA,0,"agree",5,14,6,15,6,"36","Male","No","Strong Agreement","Neither Agreement nor Disagreement","Slight Disagreement","Moderate Agreement","Very Strong Agreement","Slight Agreement","Very Strong Agreement","Strong Agreement","Neither Agreement nor Disagreement","Very Strong Agreement","Slight Agreement","Very Strong Disagreement","Neither Agreement nor Disagreement","Strong Agreement","Neither Agreement nor Disagreement","Strong Agreement","Slight Disagreement","Very Strong Agreement"
"82","A3D1PXOYFFN1MM:32ZKVD547GT8FPNUG2FQULU8BDE3B6","1",4,10,2,"50","<p style=""font-size:100px""><b>g</b></p><p style=""position: absolute; top: 30px; right: 30px; text-align:right; font-size:50px"""">N = 2</p>","g",0,NA,NA,0,"agree",5,14,6,15,6,"36","Male","No","Strong Agreement","Neither Agreement nor Disagreement","Slight Disagreement","Moderate Agreement","Very Strong Agreement","Slight Agreement","Very Strong Agreement","Strong Agreement","Neither Agreement nor Disagreement","Very Strong Agreement","Slight Agreement","Very Strong Disagreement","Neither Agreement nor Disagreement","Strong Agreement","Neither Agreement nor Disagreement","Strong Agreement","Slight Disagreement","Very Strong Agreement"
"83","A3D1PXOYFFN1MM:32ZKVD547GT8FPNUG2FQULU8BDE3B6","1",4,11,2,"50","<p style=""font-size:100px""><b>T</b></p><p style=""position: absolute; top: 30px; right: 30px; text-align:right; font-size:50px"""">N = 2</p>","T",0,NA,NA,0,"agree",5,14,6,15,6,"36","Male","No","Strong Agreement","Neither Agreement nor Disagreement","Slight Disagreement","Moderate Agreement","Very Strong Agreement","Slight Agreement","Very Strong Agreement","Strong Agreement","Neither Agreement nor Disagreement","Very Strong Agreement","Slight Agreement","Very Strong Disagreement","Neither Agreement nor Disagreement","Strong Agreement","Neither Agreement nor Disagreement","Strong Agreement","Slight Disagreement","Very Strong Agreement"
"84","A3D1PXOYFFN1MM:32ZKVD547GT8FPNUG2FQULU8BDE3B6","1",4,12,2,"50","<p style=""font-size:100px""><b>B</b></p><p style=""position: absolute; top: 30px; right: 30px; text-align:right; font-size:50px"""">N = 2</p>","B",0,NA,NA,0,"agree",5,14,6,15,6,"36","Male","No","Strong Agreement","Neither Agreement nor Disagreement","Slight Disagreement","Moderate Agreement","Very Strong Agreement","Slight Agreement","Very Strong Agreement","Strong Agreement","Neither Agreement nor Disagreement","Very Strong Agreement","Slight Agreement","Very Strong Disagreement","Neither Agreement nor Disagreement","Strong Agreement","Neither Agreement nor Disagreement","Strong Agreement","Slight Disagreement","Very Strong Agreement"
"85","A3D1PXOYFFN1MM:32ZKVD547GT8FPNUG2FQULU8BDE3B6","1",5,1,3,"5","<p style=""font-size:100px""><b>P</b></p><p style=""position: absolute; top: 30px; right: 30px; text-align:right; font-size:50px"""">N = 3</p>","P",0,NA,NA,0,"agree",8,17,7,14,16,"36","Male","No","Strong Agreement","Neither Agreement nor Disagreement","Slight Disagreement","Moderate Agreement","Very Strong Agreement","Slight Agreement","Very Strong Agreement","Strong Agreement","Neither Agreement nor Disagreement","Very Strong Agreement","Slight Agreement","Very Strong Disagreement","Neither Agreement nor Disagreement","Strong Agreement","Neither Agreement nor Disagreement","Strong Agreement","Slight Disagreement","Very Strong Agreement"
"86","A3D1PXOYFFN1MM:32ZKVD547GT8FPNUG2FQULU8BDE3B6","1",5,2,3,"5","<p style=""font-size:100px""><b>V</b></p><p style=""position: absolute; top: 30px; right: 30px; text-align:right; font-size:50px"""">N = 3</p>","V",0,NA,NA,0,"agree",8,17,7,14,16,"36","Male","No","Strong Agreement","Neither Agreement nor Disagreement","Slight Disagreement","Moderate Agreement","Very Strong Agreement","Slight Agreement","Very Strong Agreement","Strong Agreement","Neither Agreement nor Disagreement","Very Strong Agreement","Slight Agreement","Very Strong Disagreement","Neither Agreement nor Disagreement","Strong Agreement","Neither Agreement nor Disagreement","Strong Agreement","Slight Disagreement","Very Strong Agreement"
"87","A3D1PXOYFFN1MM:32ZKVD547GT8FPNUG2FQULU8BDE3B6","1",5,3,3,"5","<p style=""font-size:100px""><b>v</b></p><p style=""position: absolute; top: 30px; right: 30px; text-align:right; font-size:50px"""">N = 3</p>","v",0,NA,NA,0,"agree",8,17,7,14,16,"36","Male","No","Strong Agreement","Neither Agreement nor Disagreement","Slight Disagreement","Moderate Agreement","Very Strong Agreement","Slight Agreement","Very Strong Agreement","Strong Agreement","Neither Agreement nor Disagreement","Very Strong Agreement","Slight Agreement","Very Strong Disagreement","Neither Agreement nor Disagreement","Strong Agreement","Neither Agreement nor Disagreement","Strong Agreement","Slight Disagreement","Very Strong Agreement"
"88","A3D1PXOYFFN1MM:32ZKVD547GT8FPNUG2FQULU8BDE3B6","1",5,4,3,"5","<p style=""font-size:100px""><b>b</b></p><p style=""position: absolute; top: 30px; right: 30px; text-align:right; font-size:50px"""">N = 3</p>","b",0,NA,NA,0,"agree",8,17,7,14,16,"36","Male","No","Strong Agreement","Neither Agreement nor Disagreement","Slight Disagreement","Moderate Agreement","Very Strong Agreement","Slight Agreement","Very Strong Agreement","Strong Agreement","Neither Agreement nor Disagreement","Very Strong Agreement","Slight Agreement","Very Strong Disagreement","Neither Agreement nor Disagreement","Strong Agreement","Neither Agreement nor Disagreement","Strong Agreement","Slight Disagreement","Very Strong Agreement"
"89","A3D1PXOYFFN1MM:32ZKVD547GT8FPNUG2FQULU8BDE3B6","1",5,5,3,"5","<p style=""font-size:100px""><b>b</b></p><p style=""position: absolute; top: 30px; right: 30px; text-align:right; font-size:50px"""">N = 3</p>","b",0,NA,NA,0,"agree",8,17,7,14,16,"36","Male","No","Strong Agreement","Neither Agreement nor Disagreement","Slight Disagreement","Moderate Agreement","Very Strong Agreement","Slight Agreement","Very Strong Agreement","Strong Agreement","Neither Agreement nor Disagreement","Very Strong Agreement","Slight Agreement","Very Strong Disagreement","Neither Agreement nor Disagreement","Strong Agreement","Neither Agreement nor Disagreement","Strong Agreement","Slight Disagreement","Very Strong Agreement"
"90","A3D1PXOYFFN1MM:32ZKVD547GT8FPNUG2FQULU8BDE3B6","1",5,6,3,"5","<p style=""font-size:100px""><b>v</b></p><p style=""position: absolute; top: 30px; right: 30px; text-align:right; font-size:50px"""">N = 3</p>","v",0,NA,NA,0,"agree",8,17,7,14,16,"36","Male","No","Strong Agreement","Neither Agreement nor Disagreement","Slight Disagreement","Moderate Agreement","Very Strong Agreement","Slight Agreement","Very Strong Agreement","Strong Agreement","Neither Agreement nor Disagreement","Very Strong Agreement","Slight Agreement","Very Strong Disagreement","Neither Agreement nor Disagreement","Strong Agreement","Neither Agreement nor Disagreement","Strong Agreement","Slight Disagreement","Very Strong Agreement"
"91","A3D1PXOYFFN1MM:32ZKVD547GT8FPNUG2FQULU8BDE3B6","1",5,7,3,"5","<p style=""font-size:100px""><b>g</b></p><p style=""position: absolute; top: 30px; right: 30px; text-align:right; font-size:50px"""">N = 3</p>","g",0,NA,NA,0,"agree",8,17,7,14,16,"36","Male","No","Strong Agreement","Neither Agreement nor Disagreement","Slight Disagreement","Moderate Agreement","Very Strong Agreement","Slight Agreement","Very Strong Agreement","Strong Agreement","Neither Agreement nor Disagreement","Very Strong Agreement","Slight Agreement","Very Strong Disagreement","Neither Agreement nor Disagreement","Strong Agreement","Neither Agreement nor Disagreement","Strong Agreement","Slight Disagreement","Very Strong Agreement"
"92","A3D1PXOYFFN1MM:32ZKVD547GT8FPNUG2FQULU8BDE3B6","1",5,8,3,"5","<p style=""font-size:100px""><b>g</b></p><p style=""position: absolute; top: 30px; right: 30px; text-align:right; font-size:50px"""">N = 3</p>","g",0,NA,NA,0,"agree",8,17,7,14,16,"36","Male","No","Strong Agreement","Neither Agreement nor Disagreement","Slight Disagreement","Moderate Agreement","Very Strong Agreement","Slight Agreement","Very Strong Agreement","Strong Agreement","Neither Agreement nor Disagreement","Very Strong Agreement","Slight Agreement","Very Strong Disagreement","Neither Agreement nor Disagreement","Strong Agreement","Neither Agreement nor Disagreement","Strong Agreement","Slight Disagreement","Very Strong Agreement"
"93","A3D1PXOYFFN1MM:32ZKVD547GT8FPNUG2FQULU8BDE3B6","1",5,9,3,"5","<p style=""font-size:100px""><b>g</b></p><p style=""position: absolute; top: 30px; right: 30px; text-align:right; font-size:50px"""">N = 3</p>","g",0,NA,NA,0,"agree",8,17,7,14,16,"36","Male","No","Strong Agreement","Neither Agreement nor Disagreement","Slight Disagreement","Moderate Agreement","Very Strong Agreement","Slight Agreement","Very Strong Agreement","Strong Agreement","Neither Agreement nor Disagreement","Very Strong Agreement","Slight Agreement","Very Strong Disagreement","Neither Agreement nor Disagreement","Strong Agreement","Neither Agreement nor Disagreement","Strong Agreement","Slight Disagreement","Very Strong Agreement"
"94","A3D1PXOYFFN1MM:32ZKVD547GT8FPNUG2FQULU8BDE3B6","1",5,10,3,"5","<p style=""font-size:100px""><b>g</b></p><p style=""position: absolute; top: 30px; right: 30px; text-align:right; font-size:50px"""">N = 3</p>","g",0,NA,NA,0,"agree",8,17,7,14,16,"36","Male","No","Strong Agreement","Neither Agreement nor Disagreement","Slight Disagreement","Moderate Agreement","Very Strong Agreement","Slight Agreement","Very Strong Agreement","Strong Agreement","Neither Agreement nor Disagreement","Very Strong Agreement","Slight Agreement","Very Strong Disagreement","Neither Agreement nor Disagreement","Strong Agreement","Neither Agreement nor Disagreement","Strong Agreement","Slight Disagreement","Very Strong Agreement"
"95","A3D1PXOYFFN1MM:32ZKVD547GT8FPNUG2FQULU8BDE3B6","1",5,11,3,"5","<p style=""font-size:100px""><b>g</b></p><p style=""position: absolute; top: 30px; right: 30px; text-align:right; font-size:50px"""">N = 3</p>","g",0,NA,NA,0,"agree",8,17,7,14,16,"36","Male","No","Strong Agreement","Neither Agreement nor Disagreement","Slight Disagreement","Moderate Agreement","Very Strong Agreement","Slight Agreement","Very Strong Agreement","Strong Agreement","Neither Agreement nor Disagreement","Very Strong Agreement","Slight Agreement","Very Strong Disagreement","Neither Agreement nor Disagreement","Strong Agreement","Neither Agreement nor Disagreement","Strong Agreement","Slight Disagreement","Very Strong Agreement"
"96","A3D1PXOYFFN1MM:32ZKVD547GT8FPNUG2FQULU8BDE3B6","1",5,12,3,"5","<p style=""font-size:100px""><b>g</b></p><p style=""position: absolute; top: 30px; right: 30px; text-align:right; font-size:50px"""">N = 3</p>","g",0,NA,NA,0,"agree",8,17,7,14,16,"36","Male","No","Strong Agreement","Neither Agreement nor Disagreement","Slight Disagreement","Moderate Agreement","Very Strong Agreement","Slight Agreement","Very Strong Agreement","Strong Agreement","Neither Agreement nor Disagreement","Very Strong Agreement","Slight Agreement","Very Strong Disagreement","Neither Agreement nor Disagreement","Strong Agreement","Neither Agreement nor Disagreement","Strong Agreement","Slight Disagreement","Very Strong Agreement"
"97","A3D1PXOYFFN1MM:32ZKVD547GT8FPNUG2FQULU8BDE3B6","1",6,1,3,"5","<p style=""font-size:100px""><b>T</b></p><p style=""position: absolute; top: 30px; right: 30px; text-align:right; font-size:50px"""">N = 3</p>","T",0,NA,NA,0,"agree",16,7,7,15,7,"36","Male","No","Strong Agreement","Neither Agreement nor Disagreement","Slight Disagreement","Moderate Agreement","Very Strong Agreement","Slight Agreement","Very Strong Agreement","Strong Agreement","Neither Agreement nor Disagreement","Very Strong Agreement","Slight Agreement","Very Strong Disagreement","Neither Agreement nor Disagreement","Strong Agreement","Neither Agreement nor Disagreement","Strong Agreement","Slight Disagreement","Very Strong Agreement"
"98","A3D1PXOYFFN1MM:32ZKVD547GT8FPNUG2FQULU8BDE3B6","1",6,2,3,"5","<p style=""font-size:100px""><b>v</b></p><p style=""position: absolute; top: 30px; right: 30px; text-align:right; font-size:50px"""">N = 3</p>","v",0,NA,NA,0,"agree",16,7,7,15,7,"36","Male","No","Strong Agreement","Neither Agreement nor Disagreement","Slight Disagreement","Moderate Agreement","Very Strong Agreement","Slight Agreement","Very Strong Agreement","Strong Agreement","Neither Agreement nor Disagreement","Very Strong Agreement","Slight Agreement","Very Strong Disagreement","Neither Agreement nor Disagreement","Strong Agreement","Neither Agreement nor Disagreement","Strong Agreement","Slight Disagreement","Very Strong Agreement"
"99","A3D1PXOYFFN1MM:32ZKVD547GT8FPNUG2FQULU8BDE3B6","1",6,3,3,"5","<p style=""font-size:100px""><b>p</b></p><p style=""position: absolute; top: 30px; right: 30px; text-align:right; font-size:50px"""">N = 3</p>","p",0,NA,NA,0,"agree",16,7,7,15,7,"36","Male","No","Strong Agreement","Neither Agreement nor Disagreement","Slight Disagreement","Moderate Agreement","Very Strong Agreement","Slight Agreement","Very Strong Agreement","Strong Agreement","Neither Agreement nor Disagreement","Very Strong Agreement","Slight Agreement","Very Strong Disagreement","Neither Agreement nor Disagreement","Strong Agreement","Neither Agreement nor Disagreement","Strong Agreement","Slight Disagreement","Very Strong Agreement"
"100","A3D1PXOYFFN1MM:32ZKVD547GT8FPNUG2FQULU8BDE3B6","1",6,4,3,"5","<p style=""font-size:100px""><b>T</b></p><p style=""position: absolute; top: 30px; right: 30px; text-align:right; font-size:50px"""">N = 3</p>","T",0,NA,NA,0,"agree",16,7,7,15,7,"36","Male","No","Strong Agreement","Neither Agreement nor Disagreement","Slight Disagreement","Moderate Agreement","Very Strong Agreement","Slight Agreement","Very Strong Agreement","Strong Agreement","Neither Agreement nor Disagreement","Very Strong Agreement","Slight Agreement","Very Strong Disagreement","Neither Agreement nor Disagreement","Strong Agreement","Neither Agreement nor Disagreement","Strong Agreement","Slight Disagreement","Very Strong Agreement"
"101","A3D1PXOYFFN1MM:32ZKVD547GT8FPNUG2FQULU8BDE3B6","1",6,5,3,"5","<p style=""font-size:100px""><b>D</b></p><p style=""position: absolute; top: 30px; right: 30px; text-align:right; font-size:50px"""">N = 3</p>","D",0,NA,NA,0,"agree",16,7,7,15,7,"36","Male","No","Strong Agreement","Neither Agreement nor Disagreement","Slight Disagreement","Moderate Agreement","Very Strong Agreement","Slight Agreement","Very Strong Agreement","Strong Agreement","Neither Agreement nor Disagreement","Very Strong Agreement","Slight Agreement","Very Strong Disagreement","Neither Agreement nor Disagreement","Strong Agreement","Neither Agreement nor Disagreement","Strong Agreement","Slight Disagreement","Very Strong Agreement"
"102","A3D1PXOYFFN1MM:32ZKVD547GT8FPNUG2FQULU8BDE3B6","1",6,6,3,"5","<p style=""font-size:100px""><b>p</b></p><p style=""position: absolute; top: 30px; right: 30px; text-align:right; font-size:50px"""">N = 3</p>","p",0,NA,NA,0,"agree",16,7,7,15,7,"36","Male","No","Strong Agreement","Neither Agreement nor Disagreement","Slight Disagreement","Moderate Agreement","Very Strong Agreement","Slight Agreement","Very Strong Agreement","Strong Agreement","Neither Agreement nor Disagreement","Very Strong Agreement","Slight Agreement","Very Strong Disagreement","Neither Agreement nor Disagreement","Strong Agreement","Neither Agreement nor Disagreement","Strong Agreement","Slight Disagreement","Very Strong Agreement"
"103","A3D1PXOYFFN1MM:32ZKVD547GT8FPNUG2FQULU8BDE3B6","1",6,7,3,"5","<p style=""font-size:100px""><b>V</b></p><p style=""position: absolute; top: 30px; right: 30px; text-align:right; font-size:50px"""">N = 3</p>","V",0,NA,NA,0,"agree",16,7,7,15,7,"36","Male","No","Strong Agreement","Neither Agreement nor Disagreement","Slight Disagreement","Moderate Agreement","Very Strong Agreement","Slight Agreement","Very Strong Agreement","Strong Agreement","Neither Agreement nor Disagreement","Very Strong Agreement","Slight Agreement","Very Strong Disagreement","Neither Agreement nor Disagreement","Strong Agreement","Neither Agreement nor Disagreement","Strong Agreement","Slight Disagreement","Very Strong Agreement"
"104","A3D1PXOYFFN1MM:32ZKVD547GT8FPNUG2FQULU8BDE3B6","1",6,8,3,"5","<p style=""font-size:100px""><b>D</b></p><p style=""position: absolute; top: 30px; right: 30px; text-align:right; font-size:50px"""">N = 3</p>","D",0,NA,NA,0,"agree",16,7,7,15,7,"36","Male","No","Strong Agreement","Neither Agreement nor Disagreement","Slight Disagreement","Moderate Agreement","Very Strong Agreement","Slight Agreement","Very Strong Agreement","Strong Agreement","Neither Agreement nor Disagreement","Very Strong Agreement","Slight Agreement","Very Strong Disagreement","Neither Agreement nor Disagreement","Strong Agreement","Neither Agreement nor Disagreement","Strong Agreement","Slight Disagreement","Very Strong Agreement"
"105","A3D1PXOYFFN1MM:32ZKVD547GT8FPNUG2FQULU8BDE3B6","1",6,9,3,"5","<p style=""font-size:100px""><b>p</b></p><p style=""position: absolute; top: 30px; right: 30px; text-align:right; font-size:50px"""">N = 3</p>","p",0,NA,NA,0,"agree",16,7,7,15,7,"36","Male","No","Strong Agreement","Neither Agreement nor Disagreement","Slight Disagreement","Moderate Agreement","Very Strong Agreement","Slight Agreement","Very Strong Agreement","Strong Agreement","Neither Agreement nor Disagreement","Very Strong Agreement","Slight Agreement","Very Strong Disagreement","Neither Agreement nor Disagreement","Strong Agreement","Neither Agreement nor Disagreement","Strong Agreement","Slight Disagreement","Very Strong Agreement"
"106","A3D1PXOYFFN1MM:32ZKVD547GT8FPNUG2FQULU8BDE3B6","1",6,10,3,"5","<p style=""font-size:100px""><b>d</b></p><p style=""position: absolute; top: 30px; right: 30px; text-align:right; font-size:50px"""">N = 3</p>","d",0,NA,NA,0,"agree",16,7,7,15,7,"36","Male","No","Strong Agreement","Neither Agreement nor Disagreement","Slight Disagreement","Moderate Agreement","Very Strong Agreement","Slight Agreement","Very Strong Agreement","Strong Agreement","Neither Agreement nor Disagreement","Very Strong Agreement","Slight Agreement","Very Strong Disagreement","Neither Agreement nor Disagreement","Strong Agreement","Neither Agreement nor Disagreement","Strong Agreement","Slight Disagreement","Very Strong Agreement"
"107","A3D1PXOYFFN1MM:32ZKVD547GT8FPNUG2FQULU8BDE3B6","1",6,11,3,"5","<p style=""font-size:100px""><b>P</b></p><p style=""position: absolute; top: 30px; right: 30px; text-align:right; font-size:50px"""">N = 3</p>","P",0,NA,NA,0,"agree",16,7,7,15,7,"36","Male","No","Strong Agreement","Neither Agreement nor Disagreement","Slight Disagreement","Moderate Agreement","Very Strong Agreement","Slight Agreement","Very Strong Agreement","Strong Agreement","Neither Agreement nor Disagreement","Very Strong Agreement","Slight Agreement","Very Strong Disagreement","Neither Agreement nor Disagreement","Strong Agreement","Neither Agreement nor Disagreement","Strong Agreement","Slight Disagreement","Very Strong Agreement"
"108","A3D1PXOYFFN1MM:32ZKVD547GT8FPNUG2FQULU8BDE3B6","1",6,12,3,"5","<p style=""font-size:100px""><b>B</b></p><p style=""position: absolute; top: 30px; right: 30px; text-align:right; font-size:50px"""">N = 3</p>","B",0,NA,NA,0,"agree",16,7,7,15,7,"36","Male","No","Strong Agreement","Neither Agreement nor Disagreement","Slight Disagreement","Moderate Agreement","Very Strong Agreement","Slight Agreement","Very Strong Agreement","Strong Agreement","Neither Agreement nor Disagreement","Very Strong Agreement","Slight Agreement","Very Strong Disagreement","Neither Agreement nor Disagreement","Strong Agreement","Neither Agreement nor Disagreement","Strong Agreement","Slight Disagreement","Very Strong Agreement"
"109","A3D1PXOYFFN1MM:32ZKVD547GT8FPNUG2FQULU8BDE3B6","2",7,1,2,"50","<p style=""font-size:100px""><b>V</b></p><p style=""position: absolute; top: 30px; right: 30px; text-align:right; font-size:50px"""">N = 2</p>","V",0,NA,NA,0,"agree",18,15,6,15,8,"36","Male","No","Strong Agreement","Neither Agreement nor Disagreement","Slight Disagreement","Moderate Agreement","Very Strong Agreement","Slight Agreement","Very Strong Agreement","Strong Agreement","Neither Agreement nor Disagreement","Very Strong Agreement","Slight Agreement","Very Strong Disagreement","Neither Agreement nor Disagreement","Strong Agreement","Neither Agreement nor Disagreement","Strong Agreement","Slight Disagreement","Very Strong Agreement"
"110","A3D1PXOYFFN1MM:32ZKVD547GT8FPNUG2FQULU8BDE3B6","2",7,2,2,"50","<p style=""font-size:100px""><b>t</b></p><p style=""position: absolute; top: 30px; right: 30px; text-align:right; font-size:50px"""">N = 2</p>","t",0,NA,NA,0,"agree",18,15,6,15,8,"36","Male","No","Strong Agreement","Neither Agreement nor Disagreement","Slight Disagreement","Moderate Agreement","Very Strong Agreement","Slight Agreement","Very Strong Agreement","Strong Agreement","Neither Agreement nor Disagreement","Very Strong Agreement","Slight Agreement","Very Strong Disagreement","Neither Agreement nor Disagreement","Strong Agreement","Neither Agreement nor Disagreement","Strong Agreement","Slight Disagreement","Very Strong Agreement"
"111","A3D1PXOYFFN1MM:32ZKVD547GT8FPNUG2FQULU8BDE3B6","2",7,3,2,"50","<p style=""font-size:100px""><b>t</b></p><p style=""position: absolute; top: 30px; right: 30px; text-align:right; font-size:50px"""">N = 2</p>","t",0,NA,NA,0,"agree",18,15,6,15,8,"36","Male","No","Strong Agreement","Neither Agreement nor Disagreement","Slight Disagreement","Moderate Agreement","Very Strong Agreement","Slight Agreement","Very Strong Agreement","Strong Agreement","Neither Agreement nor Disagreement","Very Strong Agreement","Slight Agreement","Very Strong Disagreement","Neither Agreement nor Disagreement","Strong Agreement","Neither Agreement nor Disagreement","Strong Agreement","Slight Disagreement","Very Strong Agreement"
"112","A3D1PXOYFFN1MM:32ZKVD547GT8FPNUG2FQULU8BDE3B6","2",7,4,2,"50","<p style=""font-size:100px""><b>t</b></p><p style=""position: absolute; top: 30px; right: 30px; text-align:right; font-size:50px"""">N = 2</p>","t",0,NA,NA,0,"agree",18,15,6,15,8,"36","Male","No","Strong Agreement","Neither Agreement nor Disagreement","Slight Disagreement","Moderate Agreement","Very Strong Agreement","Slight Agreement","Very Strong Agreement","Strong Agreement","Neither Agreement nor Disagreement","Very Strong Agreement","Slight Agreement","Very Strong Disagreement","Neither Agreement nor Disagreement","Strong Agreement","Neither Agreement nor Disagreement","Strong Agreement","Slight Disagreement","Very Strong Agreement"
"113","A3D1PXOYFFN1MM:32ZKVD547GT8FPNUG2FQULU8BDE3B6","2",7,5,2,"50","<p style=""font-size:100px""><b>D</b></p><p style=""position: absolute; top: 30px; right: 30px; text-align:right; font-size:50px"""">N = 2</p>","D",0,NA,NA,0,"agree",18,15,6,15,8,"36","Male","No","Strong Agreement","Neither Agreement nor Disagreement","Slight Disagreement","Moderate Agreement","Very Strong Agreement","Slight Agreement","Very Strong Agreement","Strong Agreement","Neither Agreement nor Disagreement","Very Strong Agreement","Slight Agreement","Very Strong Disagreement","Neither Agreement nor Disagreement","Strong Agreement","Neither Agreement nor Disagreement","Strong Agreement","Slight Disagreement","Very Strong Agreement"
"114","A3D1PXOYFFN1MM:32ZKVD547GT8FPNUG2FQULU8BDE3B6","2",7,6,2,"50","<p style=""font-size:100px""><b>t</b></p><p style=""position: absolute; top: 30px; right: 30px; text-align:right; font-size:50px"""">N = 2</p>","t",0,NA,NA,0,"agree",18,15,6,15,8,"36","Male","No","Strong Agreement","Neither Agreement nor Disagreement","Slight Disagreement","Moderate Agreement","Very Strong Agreement","Slight Agreement","Very Strong Agreement","Strong Agreement","Neither Agreement nor Disagreement","Very Strong Agreement","Slight Agreement","Very Strong Disagreement","Neither Agreement nor Disagreement","Strong Agreement","Neither Agreement nor Disagreement","Strong Agreement","Slight Disagreement","Very Strong Agreement"
"115","A3D1PXOYFFN1MM:32ZKVD547GT8FPNUG2FQULU8BDE3B6","2",7,7,2,"50","<p style=""font-size:100px""><b>D</b></p><p style=""position: absolute; top: 30px; right: 30px; text-align:right; font-size:50px"""">N = 2</p>","D",0,NA,NA,0,"agree",18,15,6,15,8,"36","Male","No","Strong Agreement","Neither Agreement nor Disagreement","Slight Disagreement","Moderate Agreement","Very Strong Agreement","Slight Agreement","Very Strong Agreement","Strong Agreement","Neither Agreement nor Disagreement","Very Strong Agreement","Slight Agreement","Very Strong Disagreement","Neither Agreement nor Disagreement","Strong Agreement","Neither Agreement nor Disagreement","Strong Agreement","Slight Disagreement","Very Strong Agreement"
"116","A3D1PXOYFFN1MM:32ZKVD547GT8FPNUG2FQULU8BDE3B6","2",7,8,2,"50","<p style=""font-size:100px""><b>g</b></p><p style=""position: absolute; top: 30px; right: 30px; text-align:right; font-size:50px"""">N = 2</p>","g",0,NA,NA,0,"agree",18,15,6,15,8,"36","Male","No","Strong Agreement","Neither Agreement nor Disagreement","Slight Disagreement","Moderate Agreement","Very Strong Agreement","Slight Agreement","Very Strong Agreement","Strong Agreement","Neither Agreement nor Disagreement","Very Strong Agreement","Slight Agreement","Very Strong Disagreement","Neither Agreement nor Disagreement","Strong Agreement","Neither Agreement nor Disagreement","Strong Agreement","Slight Disagreement","Very Strong Agreement"
"117","A3D1PXOYFFN1MM:32ZKVD547GT8FPNUG2FQULU8BDE3B6","2",7,9,2,"50","<p style=""font-size:100px""><b>P</b></p><p style=""position: absolute; top: 30px; right: 30px; text-align:right; font-size:50px"""">N = 2</p>","P",0,NA,NA,0,"agree",18,15,6,15,8,"36","Male","No","Strong Agreement","Neither Agreement nor Disagreement","Slight Disagreement","Moderate Agreement","Very Strong Agreement","Slight Agreement","Very Strong Agreement","Strong Agreement","Neither Agreement nor Disagreement","Very Strong Agreement","Slight Agreement","Very Strong Disagreement","Neither Agreement nor Disagreement","Strong Agreement","Neither Agreement nor Disagreement","Strong Agreement","Slight Disagreement","Very Strong Agreement"
"118","A3D1PXOYFFN1MM:32ZKVD547GT8FPNUG2FQULU8BDE3B6","2",7,10,2,"50","<p style=""font-size:100px""><b>B</b></p><p style=""position: absolute; top: 30px; right: 30px; text-align:right; font-size:50px"""">N = 2</p>","B",0,NA,NA,0,"agree",18,15,6,15,8,"36","Male","No","Strong Agreement","Neither Agreement nor Disagreement","Slight Disagreement","Moderate Agreement","Very Strong Agreement","Slight Agreement","Very Strong Agreement","Strong Agreement","Neither Agreement nor Disagreement","Very Strong Agreement","Slight Agreement","Very Strong Disagreement","Neither Agreement nor Disagreement","Strong Agreement","Neither Agreement nor Disagreement","Strong Agreement","Slight Disagreement","Very Strong Agreement"
"119","A3D1PXOYFFN1MM:32ZKVD547GT8FPNUG2FQULU8BDE3B6","2",7,11,2,"50","<p style=""font-size:100px""><b>D</b></p><p style=""position: absolute; top: 30px; right: 30px; text-align:right; font-size:50px"""">N = 2</p>","D",0,NA,NA,0,"agree",18,15,6,15,8,"36","Male","No","Strong Agreement","Neither Agreement nor Disagreement","Slight Disagreement","Moderate Agreement","Very Strong Agreement","Slight Agreement","Very Strong Agreement","Strong Agreement","Neither Agreement nor Disagreement","Very Strong Agreement","Slight Agreement","Very Strong Disagreement","Neither Agreement nor Disagreement","Strong Agreement","Neither Agreement nor Disagreement","Strong Agreement","Slight Disagreement","Very Strong Agreement"
"120","A3D1PXOYFFN1MM:32ZKVD547GT8FPNUG2FQULU8BDE3B6","2",7,12,2,"50","<p style=""font-size:100px""><b>B</b></p><p style=""position: absolute; top: 30px; right: 30px; text-align:right; font-size:50px"""">N = 2</p>","B",0,NA,NA,0,"agree",18,15,6,15,8,"36","Male","No","Strong Agreement","Neither Agreement nor Disagreement","Slight Disagreement","Moderate Agreement","Very Strong Agreement","Slight Agreement","Very Strong Agreement","Strong Agreement","Neither Agreement nor Disagreement","Very Strong Agreement","Slight Agreement","Very Strong Disagreement","Neither Agreement nor Disagreement","Strong Agreement","Neither Agreement nor Disagreement","Strong Agreement","Slight Disagreement","Very Strong Agreement"
"121","A3D1PXOYFFN1MM:32ZKVD547GT8FPNUG2FQULU8BDE3B6","2",8,1,1,"50","<p style=""font-size:100px""><b>P</b></p><p style=""position: absolute; top: 30px; right: 30px; text-align:right; font-size:50px"""">N = 1</p>","P",0,73,266,1,"agree",15,19,18,15,19,"36","Male","No","Strong Agreement","Neither Agreement nor Disagreement","Slight Disagreement","Moderate Agreement","Very Strong Agreement","Slight Agreement","Very Strong Agreement","Strong Agreement","Neither Agreement nor Disagreement","Very Strong Agreement","Slight Agreement","Very Strong Disagreement","Neither Agreement nor Disagreement","Strong Agreement","Neither Agreement nor Disagreement","Strong Agreement","Slight Disagreement","Very Strong Agreement"
"122","A3D1PXOYFFN1MM:32ZKVD547GT8FPNUG2FQULU8BDE3B6","2",8,2,1,"50","<p style=""font-size:100px""><b>g</b></p><p style=""position: absolute; top: 30px; right: 30px; text-align:right; font-size:50px"""">N = 1</p>","g",0,NA,NA,0,"agree",15,19,18,15,19,"36","Male","No","Strong Agreement","Neither Agreement nor Disagreement","Slight Disagreement","Moderate Agreement","Very Strong Agreement","Slight Agreement","Very Strong Agreement","Strong Agreement","Neither Agreement nor Disagreement","Very Strong Agreement","Slight Agreement","Very Strong Disagreement","Neither Agreement nor Disagreement","Strong Agreement","Neither Agreement nor Disagreement","Strong Agreement","Slight Disagreement","Very Strong Agreement"
"123","A3D1PXOYFFN1MM:32ZKVD547GT8FPNUG2FQULU8BDE3B6","2",8,3,1,"50","<p style=""font-size:100px""><b>p</b></p><p style=""position: absolute; top: 30px; right: 30px; text-align:right; font-size:50px"""">N = 1</p>","p",0,NA,NA,0,"agree",15,19,18,15,19,"36","Male","No","Strong Agreement","Neither Agreement nor Disagreement","Slight Disagreement","Moderate Agreement","Very Strong Agreement","Slight Agreement","Very Strong Agreement","Strong Agreement","Neither Agreement nor Disagreement","Very Strong Agreement","Slight Agreement","Very Strong Disagreement","Neither Agreement nor Disagreement","Strong Agreement","Neither Agreement nor Disagreement","Strong Agreement","Slight Disagreement","Very Strong Agreement"
"124","A3D1PXOYFFN1MM:32ZKVD547GT8FPNUG2FQULU8BDE3B6","2",8,4,1,"50","<p style=""font-size:100px""><b>p</b></p><p style=""position: absolute; top: 30px; right: 30px; text-align:right; font-size:50px"""">N = 1</p>","p",0,NA,NA,0,"agree",15,19,18,15,19,"36","Male","No","Strong Agreement","Neither Agreement nor Disagreement","Slight Disagreement","Moderate Agreement","Very Strong Agreement","Slight Agreement","Very Strong Agreement","Strong Agreement","Neither Agreement nor Disagreement","Very Strong Agreement","Slight Agreement","Very Strong Disagreement","Neither Agreement nor Disagreement","Strong Agreement","Neither Agreement nor Disagreement","Strong Agreement","Slight Disagreement","Very Strong Agreement"
"125","A3D1PXOYFFN1MM:32ZKVD547GT8FPNUG2FQULU8BDE3B6","2",8,5,1,"50","<p style=""font-size:100px""><b>p</b></p><p style=""position: absolute; top: 30px; right: 30px; text-align:right; font-size:50px"""">N = 1</p>","p",0,NA,NA,0,"agree",15,19,18,15,19,"36","Male","No","Strong Agreement","Neither Agreement nor Disagreement","Slight Disagreement","Moderate Agreement","Very Strong Agreement","Slight Agreement","Very Strong Agreement","Strong Agreement","Neither Agreement nor Disagreement","Very Strong Agreement","Slight Agreement","Very Strong Disagreement","Neither Agreement nor Disagreement","Strong Agreement","Neither Agreement nor Disagreement","Strong Agreement","Slight Disagreement","Very Strong Agreement"
"126","A3D1PXOYFFN1MM:32ZKVD547GT8FPNUG2FQULU8BDE3B6","2",8,6,1,"50","<p style=""font-size:100px""><b>g</b></p><p style=""position: absolute; top: 30px; right: 30px; text-align:right; font-size:50px"""">N = 1</p>","g",0,NA,NA,0,"agree",15,19,18,15,19,"36","Male","No","Strong Agreement","Neither Agreement nor Disagreement","Slight Disagreement","Moderate Agreement","Very Strong Agreement","Slight Agreement","Very Strong Agreement","Strong Agreement","Neither Agreement nor Disagreement","Very Strong Agreement","Slight Agreement","Very Strong Disagreement","Neither Agreement nor Disagreement","Strong Agreement","Neither Agreement nor Disagreement","Strong Agreement","Slight Disagreement","Very Strong Agreement"
"127","A3D1PXOYFFN1MM:32ZKVD547GT8FPNUG2FQULU8BDE3B6","2",8,7,1,"50","<p style=""font-size:100px""><b>g</b></p><p style=""position: absolute; top: 30px; right: 30px; text-align:right; font-size:50px"""">N = 1</p>","g",0,NA,NA,0,"agree",15,19,18,15,19,"36","Male","No","Strong Agreement","Neither Agreement nor Disagreement","Slight Disagreement","Moderate Agreement","Very Strong Agreement","Slight Agreement","Very Strong Agreement","Strong Agreement","Neither Agreement nor Disagreement","Very Strong Agreement","Slight Agreement","Very Strong Disagreement","Neither Agreement nor Disagreement","Strong Agreement","Neither Agreement nor Disagreement","Strong Agreement","Slight Disagreement","Very Strong Agreement"
"128","A3D1PXOYFFN1MM:32ZKVD547GT8FPNUG2FQULU8BDE3B6","2",8,8,1,"50","<p style=""font-size:100px""><b>g</b></p><p style=""position: absolute; top: 30px; right: 30px; text-align:right; font-size:50px"""">N = 1</p>","g",0,NA,NA,0,"agree",15,19,18,15,19,"36","Male","No","Strong Agreement","Neither Agreement nor Disagreement","Slight Disagreement","Moderate Agreement","Very Strong Agreement","Slight Agreement","Very Strong Agreement","Strong Agreement","Neither Agreement nor Disagreement","Very Strong Agreement","Slight Agreement","Very Strong Disagreement","Neither Agreement nor Disagreement","Strong Agreement","Neither Agreement nor Disagreement","Strong Agreement","Slight Disagreement","Very Strong Agreement"
"129","A3D1PXOYFFN1MM:32ZKVD547GT8FPNUG2FQULU8BDE3B6","2",8,9,1,"50","<p style=""font-size:100px""><b>b</b></p><p style=""position: absolute; top: 30px; right: 30px; text-align:right; font-size:50px"""">N = 1</p>","b",0,NA,NA,0,"agree",15,19,18,15,19,"36","Male","No","Strong Agreement","Neither Agreement nor Disagreement","Slight Disagreement","Moderate Agreement","Very Strong Agreement","Slight Agreement","Very Strong Agreement","Strong Agreement","Neither Agreement nor Disagreement","Very Strong Agreement","Slight Agreement","Very Strong Disagreement","Neither Agreement nor Disagreement","Strong Agreement","Neither Agreement nor Disagreement","Strong Agreement","Slight Disagreement","Very Strong Agreement"
"130","A3D1PXOYFFN1MM:32ZKVD547GT8FPNUG2FQULU8BDE3B6","2",8,10,1,"50","<p style=""font-size:100px""><b>P</b></p><p style=""position: absolute; top: 30px; right: 30px; text-align:right; font-size:50px"""">N = 1</p>","P",0,NA,NA,0,"agree",15,19,18,15,19,"36","Male","No","Strong Agreement","Neither Agreement nor Disagreement","Slight Disagreement","Moderate Agreement","Very Strong Agreement","Slight Agreement","Very Strong Agreement","Strong Agreement","Neither Agreement nor Disagreement","Very Strong Agreement","Slight Agreement","Very Strong Disagreement","Neither Agreement nor Disagreement","Strong Agreement","Neither Agreement nor Disagreement","Strong Agreement","Slight Disagreement","Very Strong Agreement"
"131","A3D1PXOYFFN1MM:32ZKVD547GT8FPNUG2FQULU8BDE3B6","2",8,11,1,"50","<p style=""font-size:100px""><b>g</b></p><p style=""position: absolute; top: 30px; right: 30px; text-align:right; font-size:50px"""">N = 1</p>","g",0,NA,NA,0,"agree",15,19,18,15,19,"36","Male","No","Strong Agreement","Neither Agreement nor Disagreement","Slight Disagreement","Moderate Agreement","Very Strong Agreement","Slight Agreement","Very Strong Agreement","Strong Agreement","Neither Agreement nor Disagreement","Very Strong Agreement","Slight Agreement","Very Strong Disagreement","Neither Agreement nor Disagreement","Strong Agreement","Neither Agreement nor Disagreement","Strong Agreement","Slight Disagreement","Very Strong Agreement"
"132","A3D1PXOYFFN1MM:32ZKVD547GT8FPNUG2FQULU8BDE3B6","2",8,12,1,"50","<p style=""font-size:100px""><b>t</b></p><p style=""position: absolute; top: 30px; right: 30px; text-align:right; font-size:50px"""">N = 1</p>","t",0,NA,NA,0,"agree",15,19,18,15,19,"36","Male","No","Strong Agreement","Neither Agreement nor Disagreement","Slight Disagreement","Moderate Agreement","Very Strong Agreement","Slight Agreement","Very Strong Agreement","Strong Agreement","Neither Agreement nor Disagreement","Very Strong Agreement","Slight Agreement","Very Strong Disagreement","Neither Agreement nor Disagreement","Strong Agreement","Neither Agreement nor Disagreement","Strong Agreement","Slight Disagreement","Very Strong Agreement"
"133","A3D1PXOYFFN1MM:32ZKVD547GT8FPNUG2FQULU8BDE3B6","2",9,1,1,"5","<p style=""font-size:100px""><b>G</b></p><p style=""position: absolute; top: 30px; right: 30px; text-align:right; font-size:50px"""">N = 1</p>","G",0,NA,NA,0,"agree",15,17,19,13,18,"36","Male","No","Strong Agreement","Neither Agreement nor Disagreement","Slight Disagreement","Moderate Agreement","Very Strong Agreement","Slight Agreement","Very Strong Agreement","Strong Agreement","Neither Agreement nor Disagreement","Very Strong Agreement","Slight Agreement","Very Strong Disagreement","Neither Agreement nor Disagreement","Strong Agreement","Neither Agreement nor Disagreement","Strong Agreement","Slight Disagreement","Very Strong Agreement"
"134","A3D1PXOYFFN1MM:32ZKVD547GT8FPNUG2FQULU8BDE3B6","2",9,2,1,"5","<p style=""font-size:100px""><b>D</b></p><p style=""position: absolute; top: 30px; right: 30px; text-align:right; font-size:50px"""">N = 1</p>","D",0,NA,NA,0,"agree",15,17,19,13,18,"36","Male","No","Strong Agreement","Neither Agreement nor Disagreement","Slight Disagreement","Moderate Agreement","Very Strong Agreement","Slight Agreement","Very Strong Agreement","Strong Agreement","Neither Agreement nor Disagreement","Very Strong Agreement","Slight Agreement","Very Strong Disagreement","Neither Agreement nor Disagreement","Strong Agreement","Neither Agreement nor Disagreement","Strong Agreement","Slight Disagreement","Very Strong Agreement"
"135","A3D1PXOYFFN1MM:32ZKVD547GT8FPNUG2FQULU8BDE3B6","2",9,3,1,"5","<p style=""font-size:100px""><b>D</b></p><p style=""position: absolute; top: 30px; right: 30px; text-align:right; font-size:50px"""">N = 1</p>","D",0,NA,NA,0,"agree",15,17,19,13,18,"36","Male","No","Strong Agreement","Neither Agreement nor Disagreement","Slight Disagreement","Moderate Agreement","Very Strong Agreement","Slight Agreement","Very Strong Agreement","Strong Agreement","Neither Agreement nor Disagreement","Very Strong Agreement","Slight Agreement","Very Strong Disagreement","Neither Agreement nor Disagreement","Strong Agreement","Neither Agreement nor Disagreement","Strong Agreement","Slight Disagreement","Very Strong Agreement"
"136","A3D1PXOYFFN1MM:32ZKVD547GT8FPNUG2FQULU8BDE3B6","2",9,4,1,"5","<p style=""font-size:100px""><b>D</b></p><p style=""position: absolute; top: 30px; right: 30px; text-align:right; font-size:50px"""">N = 1</p>","D",0,NA,NA,0,"agree",15,17,19,13,18,"36","Male","No","Strong Agreement","Neither Agreement nor Disagreement","Slight Disagreement","Moderate Agreement","Very Strong Agreement","Slight Agreement","Very Strong Agreement","Strong Agreement","Neither Agreement nor Disagreement","Very Strong Agreement","Slight Agreement","Very Strong Disagreement","Neither Agreement nor Disagreement","Strong Agreement","Neither Agreement nor Disagreement","Strong Agreement","Slight Disagreement","Very Strong Agreement"
"137","A3D1PXOYFFN1MM:32ZKVD547GT8FPNUG2FQULU8BDE3B6","2",9,5,1,"5","<p style=""font-size:100px""><b>v</b></p><p style=""position: absolute; top: 30px; right: 30px; text-align:right; font-size:50px"""">N = 1</p>","v",0,NA,NA,0,"agree",15,17,19,13,18,"36","Male","No","Strong Agreement","Neither Agreement nor Disagreement","Slight Disagreement","Moderate Agreement","Very Strong Agreement","Slight Agreement","Very Strong Agreement","Strong Agreement","Neither Agreement nor Disagreement","Very Strong Agreement","Slight Agreement","Very Strong Disagreement","Neither Agreement nor Disagreement","Strong Agreement","Neither Agreement nor Disagreement","Strong Agreement","Slight Disagreement","Very Strong Agreement"
"138","A3D1PXOYFFN1MM:32ZKVD547GT8FPNUG2FQULU8BDE3B6","2",9,6,1,"5","<p style=""font-size:100px""><b>p</b></p><p style=""position: absolute; top: 30px; right: 30px; text-align:right; font-size:50px"""">N = 1</p>","p",0,NA,NA,0,"agree",15,17,19,13,18,"36","Male","No","Strong Agreement","Neither Agreement nor Disagreement","Slight Disagreement","Moderate Agreement","Very Strong Agreement","Slight Agreement","Very Strong Agreement","Strong Agreement","Neither Agreement nor Disagreement","Very Strong Agreement","Slight Agreement","Very Strong Disagreement","Neither Agreement nor Disagreement","Strong Agreement","Neither Agreement nor Disagreement","Strong Agreement","Slight Disagreement","Very Strong Agreement"
