"","subject","run","block","trial","N","reward","stimulus","cue","isTarget","key_press","rt","acc","debrief","performance","frustration","demand","temporal","effort","age","gender","comments","nfc1","nfc2","nfc3","nfc4","nfc5","nfc6","nfc7","nfc8","nfc9","nfc10","nfc11","nfc12","nfc13","nfc14","nfc15","nfc16","nfc17","nfc18"
"1","A3V4AW6DGWBHDO:30JNVC0ORAQAD3WIE51IT4QHGIXHQ3","practice",1,1,1,"NA","<p style=""font-size:100px""><b>T</b></p><p style=""position: absolute; top: 30px; right: 30px; text-align:right; font-size:50px"""">N = 1</p>","T",0,69,9071.10000000149,0,"agree",13,10,16,18,15,"36","Male","The third level was really hard. 2 is hard but doable.","Very Strong Disagreement","Very Strong Disagreement","Very Strong Agreement","Very Strong Agreement","Very Strong Agreement","Very Strong Disagreement","Very Strong Agreement","Strong Agreement","Very Strong Agreement","Very Strong Disagreement","Very Strong Disagreement","Very Strong Agreement","Very Strong Disagreement","Very Strong Disagreement","Very Strong Disagreement","Very Strong Agreement","Very Strong Agreement","Very Strong Disagreement"
"2","A3V4AW6DGWBHDO:30JNVC0ORAQAD3WIE51IT4QHGIXHQ3","practice",1,2,1,"NA","<p style=""font-size:100px""><b>v</b></p><p style=""position: absolute; top: 30px; right: 30px; text-align:right; font-size:50px"""">N = 1</p>","v",0,73,2040.30000000447,1,"agree",13,10,16,18,15,"36","Male","The third level was really hard. 2 is hard but doable.","Very Strong Disagreement","Very Strong Disagreement","Very Strong Agreement","Very Strong Agreement","Very Strong Agreement","Very Strong Disagreement","Very Strong Agreement","Strong Agreement","Very Strong Agreement","Very Strong Disagreement","Very Strong Disagreement","Very Strong Agreement","Very Strong Disagreement","Very Strong Disagreement","Very Strong Disagreement","Very Strong Agreement","Very Strong Agreement","Very Strong Disagreement"
"3","A3V4AW6DGWBHDO:30JNVC0ORAQAD3WIE51IT4QHGIXHQ3","practice",1,3,1,"NA","<p style=""font-size:100px""><b>P</b></p><p style=""position: absolute; top: 30px; right: 30px; text-align:right; font-size:50px"""">N = 1</p>","P",0,73,1494.20000000298,1,"agree",13,10,16,18,15,"36","Male","The third level was really hard. 2 is hard but doable.","Very Strong Disagreement","Very Strong Disagreement","Very Strong Agreement","Very Strong Agreement","Very Strong Agreement","Very Strong Disagreement","Very Strong Agreement","Strong Agreement","Very Strong Agreement","Very Strong Disagreement","Very Strong Disagreement","Very Strong Agreement","Very Strong Disagreement","Very Strong Disagreement","Very Strong Disagreement","Very Strong Agreement","Very Strong Agreement","Very Strong Disagreement"
"4","A3V4AW6DGWBHDO:30JNVC0ORAQAD3WIE51IT4QHGIXHQ3","practice",1,4,1,"NA","<p style=""font-size:100px""><b>g</b></p><p style=""position: absolute; top: 30px; right: 30px; text-align:right; font-size:50px"""">N = 1</p>","g",0,73,501.60000000149,1,"agree",13,10,16,18,15,"36","Male","The third level was really hard. 2 is hard but doable.","Very Strong Disagreement","Very Strong Disagreement","Very Strong Agreement","Very Strong Agreement","Very Strong Agreement","Very Strong Disagreement","Very Strong Agreement","Strong Agreement","Very Strong Agreement","Very Strong Disagreement","Very Strong Disagreement","Very Strong Agreement","Very Strong Disagreement","Very Strong Disagreement","Very Strong Disagreement","Very Strong Agreement","Very Strong Agreement","Very Strong Disagreement"
"5","A3V4AW6DGWBHDO:30JNVC0ORAQAD3WIE51IT4QHGIXHQ3","practice",1,5,1,"NA","<p style=""font-size:100px""><b>g</b></p><p style=""position: absolute; top: 30px; right: 30px; text-align:right; font-size:50px"""">N = 1</p>","g",1,69,559.19999999553,1,"agree",13,10,16,18,15,"36","Male","The third level was really hard. 2 is hard but doable.","Very Strong Disagreement","Very Strong Disagreement","Very Strong Agreement","Very Strong Agreement","Very Strong Agreement","Very Strong Disagreement","Very Strong Agreement","Strong Agreement","Very Strong Agreement","Very Strong Disagreement","Very Strong Disagreement","Very Strong Agreement","Very Strong Disagreement","Very Strong Disagreement","Very Strong Disagreement","Very Strong Agreement","Very Strong Agreement","Very Strong Disagreement"
"6","A3V4AW6DGWBHDO:30JNVC0ORAQAD3WIE51IT4QHGIXHQ3","practice",1,6,1,"NA","<p style=""font-size:100px""><b>d</b></p><p style=""position: absolute; top: 30px; right: 30px; text-align:right; font-size:50px"""">N = 1</p>","d",0,73,525.70000000298,1,"agree",13,10,16,18,15,"36","Male","The third level was really hard. 2 is hard but doable.","Very Strong Disagreement","Very Strong Disagreement","Very Strong Agreement","Very Strong Agreement","Very Strong Agreement","Very Strong Disagreement","Very Strong Agreement","Strong Agreement","Very Strong Agreement","Very Strong Disagreement","Very Strong Disagreement","Very Strong Agreement","Very Strong Disagreement","Very Strong Disagreement","Very Strong Disagreement","Very Strong Agreement","Very Strong Agreement","Very Strong Disagreement"
"7","A3V4AW6DGWBHDO:30JNVC0ORAQAD3WIE51IT4QHGIXHQ3","practice",1,7,1,"NA","<p style=""font-size:100px""><b>d</b></p><p style=""position: absolute; top: 30px; right: 30px; text-align:right; font-size:50px"""">N = 1</p>","d",1,69,728.89999999851,1,"agree",13,10,16,18,15,"36","Male","The third level was really hard. 2 is hard but doable.","Very Strong Disagreement","Very Strong Disagreement","Very Strong Agreement","Very Strong Agreement","Very Strong Agreement","Very Strong Disagreement","Very Strong Agreement","Strong Agreement","Very Strong Agreement","Very Strong Disagreement","Very Strong Disagreement","Very Strong Agreement","Very Strong Disagreement","Very Strong Disagreement","Very Strong Disagreement","Very Strong Agreement","Very Strong Agreement","Very Strong Disagreement"
"8","A3V4AW6DGWBHDO:30JNVC0ORAQAD3WIE51IT4QHGIXHQ3","practice",1,8,1,"NA","<p style=""font-size:100px""><b>v</b></p><p style=""position: absolute; top: 30px; right: 30px; text-align:right; font-size:50px"""">N = 1</p>","v",0,73,871.29999999702,1,"agree",13,10,16,18,15,"36","Male","The third level was really hard. 2 is hard but doable.","Very Strong Disagreement","Very Strong Disagreement","Very Strong Agreement","Very Strong Agreement","Very Strong Agreement","Very Strong Disagreement","Very Strong Agreement","Strong Agreement","Very Strong Agreement","Very Strong Disagreement","Very Strong Disagreement","Very Strong Agreement","Very Strong Disagreement","Very Strong Disagreement","Very Strong Disagreement","Very Strong Agreement","Very Strong Agreement","Very Strong Disagreement"
"9","A3V4AW6DGWBHDO:30JNVC0ORAQAD3WIE51IT4QHGIXHQ3","practice",1,9,1,"NA","<p style=""font-size:100px""><b>v</b></p><p style=""position: absolute; top: 30px; right: 30px; text-align:right; font-size:50px"""">N = 1</p>","v",1,69,662,1,"agree",13,10,16,18,15,"36","Male","The third level was really hard. 2 is hard but doable.","Very Strong Disagreement","Very Strong Disagreement","Very Strong Agreement","Very Strong Agreement","Very Strong Agreement","Very Strong Disagreement","Very Strong Agreement","Strong Agreement","Very Strong Agreement","Very Strong Disagreement","Very Strong Disagreement","Very Strong Agreement","Very Strong Disagreement","Very Strong Disagreement","Very Strong Disagreement","Very Strong Agreement","Very Strong Agreement","Very Strong Disagreement"
"10","A3V4AW6DGWBHDO:30JNVC0ORAQAD3WIE51IT4QHGIXHQ3","practice",1,10,1,"NA","<p style=""font-size:100px""><b>v</b></p><p style=""position: absolute; top: 30px; right: 30px; text-align:right; font-size:50px"""">N = 1</p>","v",1,69,1086.60000000149,1,"agree",13,10,16,18,15,"36","Male","The third level was really hard. 2 is hard but doable.","Very Strong Disagreement","Very Strong Disagreement","Very Strong Agreement","Very Strong Agreement","Very Strong Agreement","Very Strong Disagreement","Very Strong Agreement","Strong Agreement","Very Strong Agreement","Very Strong Disagreement","Very Strong Disagreement","Very Strong Agreement","Very Strong Disagreement","Very Strong Disagreement","Very Strong Disagreement","Very Strong Agreement","Very Strong Agreement","Very Strong Disagreement"
"11","A3V4AW6DGWBHDO:30JNVC0ORAQAD3WIE51IT4QHGIXHQ3","practice",1,11,1,"NA","<p style=""font-size:100px""><b>P</b></p><p style=""position: absolute; top: 30px; right: 30px; text-align:right; font-size:50px"""">N = 1</p>","P",0,73,446.70000000298,1,"agree",13,10,16,18,15,"36","Male","The third level was really hard. 2 is hard but doable.","Very Strong Disagreement","Very Strong Disagreement","Very Strong Agreement","Very Strong Agreement","Very Strong Agreement","Very Strong Disagreement","Very Strong Agreement","Strong Agreement","Very Strong Agreement","Very Strong Disagreement","Very Strong Disagreement","Very Strong Agreement","Very Strong Disagreement","Very Strong Disagreement","Very Strong Disagreement","Very Strong Agreement","Very Strong Agreement","Very Strong Disagreement"
"12","A3V4AW6DGWBHDO:30JNVC0ORAQAD3WIE51IT4QHGIXHQ3","practice",1,12,1,"NA","<p style=""font-size:100px""><b>D</b></p><p style=""position: absolute; top: 30px; right: 30px; text-align:right; font-size:50px"""">N = 1</p>","D",0,73,1162.60000000149,1,"agree",13,10,16,18,15,"36","Male","The third level was really hard. 2 is hard but doable.","Very Strong Disagreement","Very Strong Disagreement","Very Strong Agreement","Very Strong Agreement","Very Strong Agreement","Very Strong Disagreement","Very Strong Agreement","Strong Agreement","Very Strong Agreement","Very Strong Disagreement","Very Strong Disagreement","Very Strong Agreement","Very Strong Disagreement","Very Strong Disagreement","Very Strong Disagreement","Very Strong Agreement","Very Strong Agreement","Very Strong Disagreement"
"13","A3V4AW6DGWBHDO:30JNVC0ORAQAD3WIE51IT4QHGIXHQ3","practice",2,1,2,"NA","<p style=""font-size:100px""><b>G</b></p><p style=""position: absolute; top: 30px; right: 30px; text-align:right; font-size:50px"""">N = 2</p>","G",0,73,560.80000000447,1,"agree",13,10,16,18,15,"36","Male","The third level was really hard. 2 is hard but doable.","Very Strong Disagreement","Very Strong Disagreement","Very Strong Agreement","Very Strong Agreement","Very Strong Agreement","Very Strong Disagreement","Very Strong Agreement","Strong Agreement","Very Strong Agreement","Very Strong Disagreement","Very Strong Disagreement","Very Strong Agreement","Very Strong Disagreement","Very Strong Disagreement","Very Strong Disagreement","Very Strong Agreement","Very Strong Agreement","Very Strong Disagreement"
"14","A3V4AW6DGWBHDO:30JNVC0ORAQAD3WIE51IT4QHGIXHQ3","practice",2,2,2,"NA","<p style=""font-size:100px""><b>d</b></p><p style=""position: absolute; top: 30px; right: 30px; text-align:right; font-size:50px"""">N = 2</p>","d",0,73,816.20000000298,1,"agree",13,10,16,18,15,"36","Male","The third level was really hard. 2 is hard but doable.","Very Strong Disagreement","Very Strong Disagreement","Very Strong Agreement","Very Strong Agreement","Very Strong Agreement","Very Strong Disagreement","Very Strong Agreement","Strong Agreement","Very Strong Agreement","Very Strong Disagreement","Very Strong Disagreement","Very Strong Agreement","Very Strong Disagreement","Very Strong Disagreement","Very Strong Disagreement","Very Strong Agreement","Very Strong Agreement","Very Strong Disagreement"
"15","A3V4AW6DGWBHDO:30JNVC0ORAQAD3WIE51IT4QHGIXHQ3","practice",2,3,2,"NA","<p style=""font-size:100px""><b>p</b></p><p style=""position: absolute; top: 30px; right: 30px; text-align:right; font-size:50px"""">N = 2</p>","p",0,73,662.10000000149,1,"agree",13,10,16,18,15,"36","Male","The third level was really hard. 2 is hard but doable.","Very Strong Disagreement","Very Strong Disagreement","Very Strong Agreement","Very Strong Agreement","Very Strong Agreement","Very Strong Disagreement","Very Strong Agreement","Strong Agreement","Very Strong Agreement","Very Strong Disagreement","Very Strong Disagreement","Very Strong Agreement","Very Strong Disagreement","Very Strong Disagreement","Very Strong Disagreement","Very Strong Agreement","Very Strong Agreement","Very Strong Disagreement"
"16","A3V4AW6DGWBHDO:30JNVC0ORAQAD3WIE51IT4QHGIXHQ3","practice",2,4,2,"NA","<p style=""font-size:100px""><b>v</b></p><p style=""position: absolute; top: 30px; right: 30px; text-align:right; font-size:50px"""">N = 2</p>","v",0,73,554.79999999702,1,"agree",13,10,16,18,15,"36","Male","The third level was really hard. 2 is hard but doable.","Very Strong Disagreement","Very Strong Disagreement","Very Strong Agreement","Very Strong Agreement","Very Strong Agreement","Very Strong Disagreement","Very Strong Agreement","Strong Agreement","Very Strong Agreement","Very Strong Disagreement","Very Strong Disagreement","Very Strong Agreement","Very Strong Disagreement","Very Strong Disagreement","Very Strong Disagreement","Very Strong Agreement","Very Strong Agreement","Very Strong Disagreement"
"17","A3V4AW6DGWBHDO:30JNVC0ORAQAD3WIE51IT4QHGIXHQ3","practice",2,5,2,"NA","<p style=""font-size:100px""><b>p</b></p><p style=""position: absolute; top: 30px; right: 30px; text-align:right; font-size:50px"""">N = 2</p>","p",1,69,493.5,1,"agree",13,10,16,18,15,"36","Male","The third level was really hard. 2 is hard but doable.","Very Strong Disagreement","Very Strong Disagreement","Very Strong Agreement","Very Strong Agreement","Very Strong Agreement","Very Strong Disagreement","Very Strong Agreement","Strong Agreement","Very Strong Agreement","Very Strong Disagreement","Very Strong Disagreement","Very Strong Agreement","Very Strong Disagreement","Very Strong Disagreement","Very Strong Disagreement","Very Strong Agreement","Very Strong Agreement","Very Strong Disagreement"
"18","A3V4AW6DGWBHDO:30JNVC0ORAQAD3WIE51IT4QHGIXHQ3","practice",2,6,2,"NA","<p style=""font-size:100px""><b>v</b></p><p style=""position: absolute; top: 30px; right: 30px; text-align:right; font-size:50px"""">N = 2</p>","v",1,69,1013.5,1,"agree",13,10,16,18,15,"36","Male","The third level was really hard. 2 is hard but doable.","Very Strong Disagreement","Very Strong Disagreement","Very Strong Agreement","Very Strong Agreement","Very Strong Agreement","Very Strong Disagreement","Very Strong Agreement","Strong Agreement","Very Strong Agreement","Very Strong Disagreement","Very Strong Disagreement","Very Strong Agreement","Very Strong Disagreement","Very Strong Disagreement","Very Strong Disagreement","Very Strong Agreement","Very Strong Agreement","Very Strong Disagreement"
"19","A3V4AW6DGWBHDO:30JNVC0ORAQAD3WIE51IT4QHGIXHQ3","practice",2,7,2,"NA","<p style=""font-size:100px""><b>g</b></p><p style=""position: absolute; top: 30px; right: 30px; text-align:right; font-size:50px"""">N = 2</p>","g",0,73,931.10000000149,1,"agree",13,10,16,18,15,"36","Male","The third level was really hard. 2 is hard but doable.","Very Strong Disagreement","Very Strong Disagreement","Very Strong Agreement","Very Strong Agreement","Very Strong Agreement","Very Strong Disagreement","Very Strong Agreement","Strong Agreement","Very Strong Agreement","Very Strong Disagreement","Very Strong Disagreement","Very Strong Agreement","Very Strong Disagreement","Very Strong Disagreement","Very Strong Disagreement","Very Strong Agreement","Very Strong Agreement","Very Strong Disagreement"
"20","A3V4AW6DGWBHDO:30JNVC0ORAQAD3WIE51IT4QHGIXHQ3","practice",2,8,2,"NA","<p style=""font-size:100px""><b>t</b></p><p style=""position: absolute; top: 30px; right: 30px; text-align:right; font-size:50px"""">N = 2</p>","t",0,73,591.69999999553,1,"agree",13,10,16,18,15,"36","Male","The third level was really hard. 2 is hard but doable.","Very Strong Disagreement","Very Strong Disagreement","Very Strong Agreement","Very Strong Agreement","Very Strong Agreement","Very Strong Disagreement","Very Strong Agreement","Strong Agreement","Very Strong Agreement","Very Strong Disagreement","Very Strong Disagreement","Very Strong Agreement","Very Strong Disagreement","Very Strong Disagreement","Very Strong Disagreement","Very Strong Agreement","Very Strong Agreement","Very Strong Disagreement"
"21","A3V4AW6DGWBHDO:30JNVC0ORAQAD3WIE51IT4QHGIXHQ3","practice",2,9,2,"NA","<p style=""font-size:100px""><b>B</b></p><p style=""position: absolute; top: 30px; right: 30px; text-align:right; font-size:50px"""">N = 2</p>","B",0,73,584.20000000298,1,"agree",13,10,16,18,15,"36","Male","The third level was really hard. 2 is hard but doable.","Very Strong Disagreement","Very Strong Disagreement","Very Strong Agreement","Very Strong Agreement","Very Strong Agreement","Very Strong Disagreement","Very Strong Agreement","Strong Agreement","Very Strong Agreement","Very Strong Disagreement","Very Strong Disagreement","Very Strong Agreement","Very Strong Disagreement","Very Strong Disagreement","Very Strong Disagreement","Very Strong Agreement","Very Strong Agreement","Very Strong Disagreement"
"22","A3V4AW6DGWBHDO:30JNVC0ORAQAD3WIE51IT4QHGIXHQ3","practice",2,10,2,"NA","<p style=""font-size:100px""><b>t</b></p><p style=""position: absolute; top: 30px; right: 30px; text-align:right; font-size:50px"""">N = 2</p>","t",1,69,1771.09999999404,1,"agree",13,10,16,18,15,"36","Male","The third level was really hard. 2 is hard but doable.","Very Strong Disagreement","Very Strong Disagreement","Very Strong Agreement","Very Strong Agreement","Very Strong Agreement","Very Strong Disagreement","Very Strong Agreement","Strong Agreement","Very Strong Agreement","Very Strong Disagreement","Very Strong Disagreement","Very Strong Agreement","Very Strong Disagreement","Very Strong Disagreement","Very Strong Disagreement","Very Strong Agreement","Very Strong Agreement","Very Strong Disagreement"
"23","A3V4AW6DGWBHDO:30JNVC0ORAQAD3WIE51IT4QHGIXHQ3","practice",2,11,2,"NA","<p style=""font-size:100px""><b>B</b></p><p style=""position: absolute; top: 30px; right: 30px; text-align:right; font-size:50px"""">N = 2</p>","B",1,69,777.40000000596,1,"agree",13,10,16,18,15,"36","Male","The third level was really hard. 2 is hard but doable.","Very Strong Disagreement","Very Strong Disagreement","Very Strong Agreement","Very Strong Agreement","Very Strong Agreement","Very Strong Disagreement","Very Strong Agreement","Strong Agreement","Very Strong Agreement","Very Strong Disagreement","Very Strong Disagreement","Very Strong Agreement","Very Strong Disagreement","Very Strong Disagreement","Very Strong Disagreement","Very Strong Agreement","Very Strong Agreement","Very Strong Disagreement"
"24","A3V4AW6DGWBHDO:30JNVC0ORAQAD3WIE51IT4QHGIXHQ3","practice",2,12,2,"NA","<p style=""font-size:100px""><b>V</b></p><p style=""position: absolute; top: 30px; right: 30px; text-align:right; font-size:50px"""">N = 2</p>","V",0,73,814.20000000298,1,"agree",13,10,16,18,15,"36","Male","The third level was really hard. 2 is hard but doable.","Very Strong Disagreement","Very Strong Disagreement","Very Strong Agreement","Very Strong Agreement","Very Strong Agreement","Very Strong Disagreement","Very Strong Agreement","Strong Agreement","Very Strong Agreement","Very Strong Disagreement","Very Strong Disagreement","Very Strong Agreement","Very Strong Disagreement","Very Strong Disagreement","Very Strong Disagreement","Very Strong Agreement","Very Strong Agreement","Very Strong Disagreement"
"25","A3V4AW6DGWBHDO:30JNVC0ORAQAD3WIE51IT4QHGIXHQ3","practice",3,1,3,"NA","<p style=""font-size:100px""><b>p</b></p><p style=""position: absolute; top: 30px; right: 30px; text-align:right; font-size:50px"""">N = 3</p>","p",0,73,1166.69999999553,1,"agree",13,10,16,18,15,"36","Male","The third level was really hard. 2 is hard but doable.","Very Strong Disagreement","Very Strong Disagreement","Very Strong Agreement","Very Strong Agreement","Very Strong Agreement","Very Strong Disagreement","Very Strong Agreement","Strong Agreement","Very Strong Agreement","Very Strong Disagreement","Very Strong Disagreement","Very Strong Agreement","Very Strong Disagreement","Very Strong Disagreement","Very Strong Disagreement","Very Strong Agreement","Very Strong Agreement","Very Strong Disagreement"
"26","A3V4AW6DGWBHDO:30JNVC0ORAQAD3WIE51IT4QHGIXHQ3","practice",3,2,3,"NA","<p style=""font-size:100px""><b>g</b></p><p style=""position: absolute; top: 30px; right: 30px; text-align:right; font-size:50px"""">N = 3</p>","g",0,73,530.20000000298,1,"agree",13,10,16,18,15,"36","Male","The third level was really hard. 2 is hard but doable.","Very Strong Disagreement","Very Strong Disagreement","Very Strong Agreement","Very Strong Agreement","Very Strong Agreement","Very Strong Disagreement","Very Strong Agreement","Strong Agreement","Very Strong Agreement","Very Strong Disagreement","Very Strong Disagreement","Very Strong Agreement","Very Strong Disagreement","Very Strong Disagreement","Very Strong Disagreement","Very Strong Agreement","Very Strong Agreement","Very Strong Disagreement"
"27","A3V4AW6DGWBHDO:30JNVC0ORAQAD3WIE51IT4QHGIXHQ3","practice",3,3,3,"NA","<p style=""font-size:100px""><b>d</b></p><p style=""position: absolute; top: 30px; right: 30px; text-align:right; font-size:50px"""">N = 3</p>","d",0,73,686,1,"agree",13,10,16,18,15,"36","Male","The third level was really hard. 2 is hard but doable.","Very Strong Disagreement","Very Strong Disagreement","Very Strong Agreement","Very Strong Agreement","Very Strong Agreement","Very Strong Disagreement","Very Strong Agreement","Strong Agreement","Very Strong Agreement","Very Strong Disagreement","Very Strong Disagreement","Very Strong Agreement","Very Strong Disagreement","Very Strong Disagreement","Very Strong Disagreement","Very Strong Agreement","Very Strong Agreement","Very Strong Disagreement"
"28","A3V4AW6DGWBHDO:30JNVC0ORAQAD3WIE51IT4QHGIXHQ3","practice",3,4,3,"NA","<p style=""font-size:100px""><b>p</b></p><p style=""position: absolute; top: 30px; right: 30px; text-align:right; font-size:50px"""">N = 3</p>","p",1,69,638.69999999553,1,"agree",13,10,16,18,15,"36","Male","The third level was really hard. 2 is hard but doable.","Very Strong Disagreement","Very Strong Disagreement","Very Strong Agreement","Very Strong Agreement","Very Strong Agreement","Very Strong Disagreement","Very Strong Agreement","Strong Agreement","Very Strong Agreement","Very Strong Disagreement","Very Strong Disagreement","Very Strong Agreement","Very Strong Disagreement","Very Strong Disagreement","Very Strong Disagreement","Very Strong Agreement","Very Strong Agreement","Very Strong Disagreement"
"29","A3V4AW6DGWBHDO:30JNVC0ORAQAD3WIE51IT4QHGIXHQ3","practice",3,5,3,"NA","<p style=""font-size:100px""><b>g</b></p><p style=""position: absolute; top: 30px; right: 30px; text-align:right; font-size:50px"""">N = 3</p>","g",1,73,998.79999999702,0,"agree",13,10,16,18,15,"36","Male","The third level was really hard. 2 is hard but doable.","Very Strong Disagreement","Very Strong Disagreement","Very Strong Agreement","Very Strong Agreement","Very Strong Agreement","Very Strong Disagreement","Very Strong Agreement","Strong Agreement","Very Strong Agreement","Very Strong Disagreement","Very Strong Disagreement","Very Strong Agreement","Very Strong Disagreement","Very Strong Disagreement","Very Strong Disagreement","Very Strong Agreement","Very Strong Agreement","Very Strong Disagreement"
"30","A3V4AW6DGWBHDO:30JNVC0ORAQAD3WIE51IT4QHGIXHQ3","practice",3,6,3,"NA","<p style=""font-size:100px""><b>V</b></p><p style=""position: absolute; top: 30px; right: 30px; text-align:right; font-size:50px"""">N = 3</p>","V",0,73,1246.20000000298,1,"agree",13,10,16,18,15,"36","Male","The third level was really hard. 2 is hard but doable.","Very Strong Disagreement","Very Strong Disagreement","Very Strong Agreement","Very Strong Agreement","Very Strong Agreement","Very Strong Disagreement","Very Strong Agreement","Strong Agreement","Very Strong Agreement","Very Strong Disagreement","Very Strong Disagreement","Very Strong Agreement","Very Strong Disagreement","Very Strong Disagreement","Very Strong Disagreement","Very Strong Agreement","Very Strong Agreement","Very Strong Disagreement"
"31","A3V4AW6DGWBHDO:30JNVC0ORAQAD3WIE51IT4QHGIXHQ3","practice",3,7,3,"NA","<p style=""font-size:100px""><b>d</b></p><p style=""position: absolute; top: 30px; right: 30px; text-align:right; font-size:50px"""">N = 3</p>","d",0,69,762.10000000149,0,"agree",13,10,16,18,15,"36","Male","The third level was really hard. 2 is hard but doable.","Very Strong Disagreement","Very Strong Disagreement","Very Strong Agreement","Very Strong Agreement","Very Strong Agreement","Very Strong Disagreement","Very Strong Agreement","Strong Agreement","Very Strong Agreement","Very Strong Disagreement","Very Strong Disagreement","Very Strong Agreement","Very Strong Disagreement","Very Strong Disagreement","Very Strong Disagreement","Very Strong Agreement","Very Strong Agreement","Very Strong Disagreement"
"32","A3V4AW6DGWBHDO:30JNVC0ORAQAD3WIE51IT4QHGIXHQ3","practice",3,8,3,"NA","<p style=""font-size:100px""><b>p</b></p><p style=""position: absolute; top: 30px; right: 30px; text-align:right; font-size:50px"""">N = 3</p>","p",0,69,854.10000000149,0,"agree",13,10,16,18,15,"36","Male","The third level was really hard. 2 is hard but doable.","Very Strong Disagreement","Very Strong Disagreement","Very Strong Agreement","Very Strong Agreement","Very Strong Agreement","Very Strong Disagreement","Very Strong Agreement","Strong Agreement","Very Strong Agreement","Very Strong Disagreement","Very Strong Disagreement","Very Strong Agreement","Very Strong Disagreement","Very Strong Disagreement","Very Strong Disagreement","Very Strong Agreement","Very Strong Agreement","Very Strong Disagreement"
"33","A3V4AW6DGWBHDO:30JNVC0ORAQAD3WIE51IT4QHGIXHQ3","practice",3,9,3,"NA","<p style=""font-size:100px""><b>V</b></p><p style=""position: absolute; top: 30px; right: 30px; text-align:right; font-size:50px"""">N = 3</p>","V",1,73,643.10000000149,0,"agree",13,10,16,18,15,"36","Male","The third level was really hard. 2 is hard but doable.","Very Strong Disagreement","Very Strong Disagreement","Very Strong Agreement","Very Strong Agreement","Very Strong Agreement","Very Strong Disagreement","Very Strong Agreement","Strong Agreement","Very Strong Agreement","Very Strong Disagreement","Very Strong Disagreement","Very Strong Agreement","Very Strong Disagreement","Very Strong Disagreement","Very Strong Disagreement","Very Strong Agreement","Very Strong Agreement","Very Strong Disagreement"
"34","A3V4AW6DGWBHDO:30JNVC0ORAQAD3WIE51IT4QHGIXHQ3","practice",3,10,3,"NA","<p style=""font-size:100px""><b>G</b></p><p style=""position: absolute; top: 30px; right: 30px; text-align:right; font-size:50px"""">N = 3</p>","G",0,73,862.20000000298,1,"agree",13,10,16,18,15,"36","Male","The third level was really hard. 2 is hard but doable.","Very Strong Disagreement","Very Strong Disagreement","Very Strong Agreement","Very Strong Agreement","Very Strong Agreement","Very Strong Disagreement","Very Strong Agreement","Strong Agreement","Very Strong Agreement","Very Strong Disagreement","Very Strong Disagreement","Very Strong Agreement","Very Strong Disagreement","Very Strong Disagreement","Very Strong Disagreement","Very Strong Agreement","Very Strong Agreement","Very Strong Disagreement"
"35","A3V4AW6DGWBHDO:30JNVC0ORAQAD3WIE51IT4QHGIXHQ3","practice",3,11,3,"NA","<p style=""font-size:100px""><b>p</b></p><p style=""position: absolute; top: 30px; right: 30px; text-align:right; font-size:50px"""">N = 3</p>","p",1,73,680,0,"agree",13,10,16,18,15,"36","Male","The third level was really hard. 2 is hard but doable.","Very Strong Disagreement","Very Strong Disagreement","Very Strong Agreement","Very Strong Agreement","Very Strong Agreement","Very Strong Disagreement","Very Strong Agreement","Strong Agreement","Very Strong Agreement","Very Strong Disagreement","Very Strong Disagreement","Very Strong Agreement","Very Strong Disagreement","Very Strong Disagreement","Very Strong Disagreement","Very Strong Agreement","Very Strong Agreement","Very Strong Disagreement"
"36","A3V4AW6DGWBHDO:30JNVC0ORAQAD3WIE51IT4QHGIXHQ3","practice",3,12,3,"NA","<p style=""font-size:100px""><b>G</b></p><p style=""position: absolute; top: 30px; right: 30px; text-align:right; font-size:50px"""">N = 3</p>","G",0,73,1713,1,"agree",13,10,16,18,15,"36","Male","The third level was really hard. 2 is hard but doable.","Very Strong Disagreement","Very Strong Disagreement","Very Strong Agreement","Very Strong Agreement","Very Strong Agreement","Very Strong Disagreement","Very Strong Agreement","Strong Agreement","Very Strong Agreement","Very Strong Disagreement","Very Strong Disagreement","Very Strong Agreement","Very Strong Disagreement","Very Strong Disagreement","Very Strong Disagreement","Very Strong Agreement","Very Strong Agreement","Very Strong Disagreement"
"37","A3V4AW6DGWBHDO:30JNVC0ORAQAD3WIE51IT4QHGIXHQ3","1",1,1,2,"50","<p style=""font-size:100px""><b>B</b></p><p style=""position: absolute; top: 30px; right: 30px; text-align:right; font-size:50px"""">N = 2</p>","B",0,73,957.29999999702,1,"agree",13,10,16,18,15,"36","Male","The third level was really hard. 2 is hard but doable.","Very Strong Disagreement","Very Strong Disagreement","Very Strong Agreement","Very Strong Agreement","Very Strong Agreement","Very Strong Disagreement","Very Strong Agreement","Strong Agreement","Very Strong Agreement","Very Strong Disagreement","Very Strong Disagreement","Very Strong Agreement","Very Strong Disagreement","Very Strong Disagreement","Very Strong Disagreement","Very Strong Agreement","Very Strong Agreement","Very Strong Disagreement"
"38","A3V4AW6DGWBHDO:30JNVC0ORAQAD3WIE51IT4QHGIXHQ3","1",1,2,2,"50","<p style=""font-size:100px""><b>g</b></p><p style=""position: absolute; top: 30px; right: 30px; text-align:right; font-size:50px"""">N = 2</p>","g",0,73,859.09999999404,1,"agree",13,10,16,18,15,"36","Male","The third level was really hard. 2 is hard but doable.","Very Strong Disagreement","Very Strong Disagreement","Very Strong Agreement","Very Strong Agreement","Very Strong Agreement","Very Strong Disagreement","Very Strong Agreement","Strong Agreement","Very Strong Agreement","Very Strong Disagreement","Very Strong Disagreement","Very Strong Agreement","Very Strong Disagreement","Very Strong Disagreement","Very Strong Disagreement","Very Strong Agreement","Very Strong Agreement","Very Strong Disagreement"
"39","A3V4AW6DGWBHDO:30JNVC0ORAQAD3WIE51IT4QHGIXHQ3","1",1,3,2,"50","<p style=""font-size:100px""><b>B</b></p><p style=""position: absolute; top: 30px; right: 30px; text-align:right; font-size:50px"""">N = 2</p>","B",0,69,695.40000000596,0,"agree",13,10,16,18,15,"36","Male","The third level was really hard. 2 is hard but doable.","Very Strong Disagreement","Very Strong Disagreement","Very Strong Agreement","Very Strong Agreement","Very Strong Agreement","Very Strong Disagreement","Very Strong Agreement","Strong Agreement","Very Strong Agreement","Very Strong Disagreement","Very Strong Disagreement","Very Strong Agreement","Very Strong Disagreement","Very Strong Disagreement","Very Strong Disagreement","Very Strong Agreement","Very Strong Agreement","Very Strong Disagreement"
"40","A3V4AW6DGWBHDO:30JNVC0ORAQAD3WIE51IT4QHGIXHQ3","1",1,4,2,"50","<p style=""font-size:100px""><b>d</b></p><p style=""position: absolute; top: 30px; right: 30px; text-align:right; font-size:50px"""">N = 2</p>","d",0,NA,NA,0,"agree",13,10,16,18,15,"36","Male","The third level was really hard. 2 is hard but doable.","Very Strong Disagreement","Very Strong Disagreement","Very Strong Agreement","Very Strong Agreement","Very Strong Agreement","Very Strong Disagreement","Very Strong Agreement","Strong Agreement","Very Strong Agreement","Very Strong Disagreement","Very Strong Disagreement","Very Strong Agreement","Very Strong Disagreement","Very Strong Disagreement","Very Strong Disagreement","Very Strong Agreement","Very Strong Agreement","Very Strong Disagreement"
"41","A3V4AW6DGWBHDO:30JNVC0ORAQAD3WIE51IT4QHGIXHQ3","1",1,5,2,"50","<p style=""font-size:100px""><b>B</b></p><p style=""position: absolute; top: 30px; right: 30px; text-align:right; font-size:50px"""">N = 2</p>","B",0,69,808.19999999553,0,"agree",13,10,16,18,15,"36","Male","The third level was really hard. 2 is hard but doable.","Very Strong Disagreement","Very Strong Disagreement","Very Strong Agreement","Very Strong Agreement","Very Strong Agreement","Very Strong Disagreement","Very Strong Agreement","Strong Agreement","Very Strong Agreement","Very Strong Disagreement","Very Strong Disagreement","Very Strong Agreement","Very Strong Disagreement","Very Strong Disagreement","Very Strong Disagreement","Very Strong Agreement","Very Strong Agreement","Very Strong Disagreement"
"42","A3V4AW6DGWBHDO:30JNVC0ORAQAD3WIE51IT4QHGIXHQ3","1",1,6,2,"50","<p style=""font-size:100px""><b>V</b></p><p style=""position: absolute; top: 30px; right: 30px; text-align:right; font-size:50px"""">N = 2</p>","V",0,73,602.09999999404,1,"agree",13,10,16,18,15,"36","Male","The third level was really hard. 2 is hard but doable.","Very Strong Disagreement","Very Strong Disagreement","Very Strong Agreement","Very Strong Agreement","Very Strong Agreement","Very Strong Disagreement","Very Strong Agreement","Strong Agreement","Very Strong Agreement","Very Strong Disagreement","Very Strong Disagreement","Very Strong Agreement","Very Strong Disagreement","Very Strong Disagreement","Very Strong Disagreement","Very Strong Agreement","Very Strong Agreement","Very Strong Disagreement"
"43","A3V4AW6DGWBHDO:30JNVC0ORAQAD3WIE51IT4QHGIXHQ3","1",1,7,2,"50","<p style=""font-size:100px""><b>d</b></p><p style=""position: absolute; top: 30px; right: 30px; text-align:right; font-size:50px"""">N = 2</p>","d",0,73,572.30000000447,1,"agree",13,10,16,18,15,"36","Male","The third level was really hard. 2 is hard but doable.","Very Strong Disagreement","Very Strong Disagreement","Very Strong Agreement","Very Strong Agreement","Very Strong Agreement","Very Strong Disagreement","Very Strong Agreement","Strong Agreement","Very Strong Agreement","Very Strong Disagreement","Very Strong Disagreement","Very Strong Agreement","Very Strong Disagreement","Very Strong Disagreement","Very Strong Disagreement","Very Strong Agreement","Very Strong Agreement","Very Strong Disagreement"
"44","A3V4AW6DGWBHDO:30JNVC0ORAQAD3WIE51IT4QHGIXHQ3","1",1,8,2,"50","<p style=""font-size:100px""><b>P</b></p><p style=""position: absolute; top: 30px; right: 30px; text-align:right; font-size:50px"""">N = 2</p>","P",0,73,436.69999999553,1,"agree",13,10,16,18,15,"36","Male","The third level was really hard. 2 is hard but doable.","Very Strong Disagreement","Very Strong Disagreement","Very Strong Agreement","Very Strong Agreement","Very Strong Agreement","Very Strong Disagreement","Very Strong Agreement","Strong Agreement","Very Strong Agreement","Very Strong Disagreement","Very Strong Disagreement","Very Strong Agreement","Very Strong Disagreement","Very Strong Disagreement","Very Strong Disagreement","Very Strong Agreement","Very Strong Agreement","Very Strong Disagreement"
"45","A3V4AW6DGWBHDO:30JNVC0ORAQAD3WIE51IT4QHGIXHQ3","1",1,9,2,"50","<p style=""font-size:100px""><b>d</b></p><p style=""position: absolute; top: 30px; right: 30px; text-align:right; font-size:50px"""">N = 2</p>","d",0,69,402.19999999553,0,"agree",13,10,16,18,15,"36","Male","The third level was really hard. 2 is hard but doable.","Very Strong Disagreement","Very Strong Disagreement","Very Strong Agreement","Very Strong Agreement","Very Strong Agreement","Very Strong Disagreement","Very Strong Agreement","Strong Agreement","Very Strong Agreement","Very Strong Disagreement","Very Strong Disagreement","Very Strong Agreement","Very Strong Disagreement","Very Strong Disagreement","Very Strong Disagreement","Very Strong Agreement","Very Strong Agreement","Very Strong Disagreement"
"46","A3V4AW6DGWBHDO:30JNVC0ORAQAD3WIE51IT4QHGIXHQ3","1",1,10,2,"50","<p style=""font-size:100px""><b>P</b></p><p style=""position: absolute; top: 30px; right: 30px; text-align:right; font-size:50px"""">N = 2</p>","P",0,69,627.5,0,"agree",13,10,16,18,15,"36","Male","The third level was really hard. 2 is hard but doable.","Very Strong Disagreement","Very Strong Disagreement","Very Strong Agreement","Very Strong Agreement","Very Strong Agreement","Very Strong Disagreement","Very Strong Agreement","Strong Agreement","Very Strong Agreement","Very Strong Disagreement","Very Strong Disagreement","Very Strong Agreement","Very Strong Disagreement","Very Strong Disagreement","Very Strong Disagreement","Very Strong Agreement","Very Strong Agreement","Very Strong Disagreement"
"47","A3V4AW6DGWBHDO:30JNVC0ORAQAD3WIE51IT4QHGIXHQ3","1",1,11,2,"50","<p style=""font-size:100px""><b>t</b></p><p style=""position: absolute; top: 30px; right: 30px; text-align:right; font-size:50px"""">N = 2</p>","t",0,73,576.10000000149,1,"agree",13,10,16,18,15,"36","Male","The third level was really hard. 2 is hard but doable.","Very Strong Disagreement","Very Strong Disagreement","Very Strong Agreement","Very Strong Agreement","Very Strong Agreement","Very Strong Disagreement","Very Strong Agreement","Strong Agreement","Very Strong Agreement","Very Strong Disagreement","Very Strong Disagreement","Very Strong Agreement","Very Strong Disagreement","Very Strong Disagreement","Very Strong Disagreement","Very Strong Agreement","Very Strong Agreement","Very Strong Disagreement"
"48","A3V4AW6DGWBHDO:30JNVC0ORAQAD3WIE51IT4QHGIXHQ3","1",1,12,2,"50","<p style=""font-size:100px""><b>g</b></p><p style=""position: absolute; top: 30px; right: 30px; text-align:right; font-size:50px"""">N = 2</p>","g",0,73,524.79999999702,1,"agree",13,10,16,18,15,"36","Male","The third level was really hard. 2 is hard but doable.","Very Strong Disagreement","Very Strong Disagreement","Very Strong Agreement","Very Strong Agreement","Very Strong Agreement","Very Strong Disagreement","Very Strong Agreement","Strong Agreement","Very Strong Agreement","Very Strong Disagreement","Very Strong Disagreement","Very Strong Agreement","Very Strong Disagreement","Very Strong Disagreement","Very Strong Disagreement","Very Strong Agreement","Very Strong Agreement","Very Strong Disagreement"
"49","A3V4AW6DGWBHDO:30JNVC0ORAQAD3WIE51IT4QHGIXHQ3","1",2,1,1,"5","<p style=""font-size:100px""><b>g</b></p><p style=""position: absolute; top: 30px; right: 30px; text-align:right; font-size:50px"""">N = 1</p>","g",0,73,468,1,"agree",18,5,3,6,5,"36","Male","The third level was really hard. 2 is hard but doable.","Very Strong Disagreement","Very Strong Disagreement","Very Strong Agreement","Very Strong Agreement","Very Strong Agreement","Very Strong Disagreement","Very Strong Agreement","Strong Agreement","Very Strong Agreement","Very Strong Disagreement","Very Strong Disagreement","Very Strong Agreement","Very Strong Disagreement","Very Strong Disagreement","Very Strong Disagreement","Very Strong Agreement","Very Strong Agreement","Very Strong Disagreement"
"50","A3V4AW6DGWBHDO:30JNVC0ORAQAD3WIE51IT4QHGIXHQ3","1",2,2,1,"5","<p style=""font-size:100px""><b>P</b></p><p style=""position: absolute; top: 30px; right: 30px; text-align:right; font-size:50px"""">N = 1</p>","P",0,73,626.10000000149,1,"agree",18,5,3,6,5,"36","Male","The third level was really hard. 2 is hard but doable.","Very Strong Disagreement","Very Strong Disagreement","Very Strong Agreement","Very Strong Agreement","Very Strong Agreement","Very Strong Disagreement","Very Strong Agreement","Strong Agreement","Very Strong Agreement","Very Strong Disagreement","Very Strong Disagreement","Very Strong Agreement","Very Strong Disagreement","Very Strong Disagreement","Very Strong Disagreement","Very Strong Agreement","Very Strong Agreement","Very Strong Disagreement"
"51","A3V4AW6DGWBHDO:30JNVC0ORAQAD3WIE51IT4QHGIXHQ3","1",2,3,1,"5","<p style=""font-size:100px""><b>D</b></p><p style=""position: absolute; top: 30px; right: 30px; text-align:right; font-size:50px"""">N = 1</p>","D",0,73,450.5,1,"agree",18,5,3,6,5,"36","Male","The third level was really hard. 2 is hard but doable.","Very Strong Disagreement","Very Strong Disagreement","Very Strong Agreement","Very Strong Agreement","Very Strong Agreement","Very Strong Disagreement","Very Strong Agreement","Strong Agreement","Very Strong Agreement","Very Strong Disagreement","Very Strong Disagreement","Very Strong Agreement","Very Strong Disagreement","Very Strong Disagreement","Very Strong Disagreement","Very Strong Agreement","Very Strong Agreement","Very Strong Disagreement"
"52","A3V4AW6DGWBHDO:30JNVC0ORAQAD3WIE51IT4QHGIXHQ3","1",2,4,1,"5","<p style=""font-size:100px""><b>T</b></p><p style=""position: absolute; top: 30px; right: 30px; text-align:right; font-size:50px"""">N = 1</p>","T",0,73,384.60000000149,1,"agree",18,5,3,6,5,"36","Male","The third level was really hard. 2 is hard but doable.","Very Strong Disagreement","Very Strong Disagreement","Very Strong Agreement","Very Strong Agreement","Very Strong Agreement","Very Strong Disagreement","Very Strong Agreement","Strong Agreement","Very Strong Agreement","Very Strong Disagreement","Very Strong Disagreement","Very Strong Agreement","Very Strong Disagreement","Very Strong Disagreement","Very Strong Disagreement","Very Strong Agreement","Very Strong Agreement","Very Strong Disagreement"
"53","A3V4AW6DGWBHDO:30JNVC0ORAQAD3WIE51IT4QHGIXHQ3","1",2,5,1,"5","<p style=""font-size:100px""><b>D</b></p><p style=""position: absolute; top: 30px; right: 30px; text-align:right; font-size:50px"""">N = 1</p>","D",0,73,571.20000000298,1,"agree",18,5,3,6,5,"36","Male","The third level was really hard. 2 is hard but doable.","Very Strong Disagreement","Very Strong Disagreement","Very Strong Agreement","Very Strong Agreement","Very Strong Agreement","Very Strong Disagreement","Very Strong Agreement","Strong Agreement","Very Strong Agreement","Very Strong Disagreement","Very Strong Disagreement","Very Strong Agreement","Very Strong Disagreement","Very Strong Disagreement","Very Strong Disagreement","Very Strong Agreement","Very Strong Agreement","Very Strong Disagreement"
"54","A3V4AW6DGWBHDO:30JNVC0ORAQAD3WIE51IT4QHGIXHQ3","1",2,6,1,"5","<p style=""font-size:100px""><b>G</b></p><p style=""position: absolute; top: 30px; right: 30px; text-align:right; font-size:50px"""">N = 1</p>","G",0,73,385.70000000298,1,"agree",18,5,3,6,5,"36","Male","The third level was really hard. 2 is hard but doable.","Very Strong Disagreement","Very Strong Disagreement","Very Strong Agreement","Very Strong Agreement","Very Strong Agreement","Very Strong Disagreement","Very Strong Agreement","Strong Agreement","Very Strong Agreement","Very Strong Disagreement","Very Strong Disagreement","Very Strong Agreement","Very Strong Disagreement","Very Strong Disagreement","Very Strong Disagreement","Very Strong Agreement","Very Strong Agreement","Very Strong Disagreement"
"55","A3V4AW6DGWBHDO:30JNVC0ORAQAD3WIE51IT4QHGIXHQ3","1",2,7,1,"5","<p style=""font-size:100px""><b>P</b></p><p style=""position: absolute; top: 30px; right: 30px; text-align:right; font-size:50px"""">N = 1</p>","P",0,73,382.20000000298,1,"agree",18,5,3,6,5,"36","Male","The third level was really hard. 2 is hard but doable.","Very Strong Disagreement","Very Strong Disagreement","Very Strong Agreement","Very Strong Agreement","Very Strong Agreement","Very Strong Disagreement","Very Strong Agreement","Strong Agreement","Very Strong Agreement","Very Strong Disagreement","Very Strong Disagreement","Very Strong Agreement","Very Strong Disagreement","Very Strong Disagreement","Very Strong Disagreement","Very Strong Agreement","Very Strong Agreement","Very Strong Disagreement"
"56","A3V4AW6DGWBHDO:30JNVC0ORAQAD3WIE51IT4QHGIXHQ3","1",2,8,1,"5","<p style=""font-size:100px""><b>V</b></p><p style=""position: absolute; top: 30px; right: 30px; text-align:right; font-size:50px"""">N = 1</p>","V",0,73,392.20000000298,1,"agree",18,5,3,6,5,"36","Male","The third level was really hard. 2 is hard but doable.","Very Strong Disagreement","Very Strong Disagreement","Very Strong Agreement","Very Strong Agreement","Very Strong Agreement","Very Strong Disagreement","Very Strong Agreement","Strong Agreement","Very Strong Agreement","Very Strong Disagreement","Very Strong Disagreement","Very Strong Agreement","Very Strong Disagreement","Very Strong Disagreement","Very Strong Disagreement","Very Strong Agreement","Very Strong Agreement","Very Strong Disagreement"
"57","A3V4AW6DGWBHDO:30JNVC0ORAQAD3WIE51IT4QHGIXHQ3","1",2,9,1,"5","<p style=""font-size:100px""><b>V</b></p><p style=""position: absolute; top: 30px; right: 30px; text-align:right; font-size:50px"""">N = 1</p>","V",0,69,403,0,"agree",18,5,3,6,5,"36","Male","The third level was really hard. 2 is hard but doable.","Very Strong Disagreement","Very Strong Disagreement","Very Strong Agreement","Very Strong Agreement","Very Strong Agreement","Very Strong Disagreement","Very Strong Agreement","Strong Agreement","Very Strong Agreement","Very Strong Disagreement","Very Strong Disagreement","Very Strong Agreement","Very Strong Disagreement","Very Strong Disagreement","Very Strong Disagreement","Very Strong Agreement","Very Strong Agreement","Very Strong Disagreement"
"58","A3V4AW6DGWBHDO:30JNVC0ORAQAD3WIE51IT4QHGIXHQ3","1",2,10,1,"5","<p style=""font-size:100px""><b>V</b></p><p style=""position: absolute; top: 30px; right: 30px; text-align:right; font-size:50px"""">N = 1</p>","V",0,69,369.70000000298,0,"agree",18,5,3,6,5,"36","Male","The third level was really hard. 2 is hard but doable.","Very Strong Disagreement","Very Strong Disagreement","Very Strong Agreement","Very Strong Agreement","Very Strong Agreement","Very Strong Disagreement","Very Strong Agreement","Strong Agreement","Very Strong Agreement","Very Strong Disagreement","Very Strong Disagreement","Very Strong Agreement","Very Strong Disagreement","Very Strong Disagreement","Very Strong Disagreement","Very Strong Agreement","Very Strong Agreement","Very Strong Disagreement"
"59","A3V4AW6DGWBHDO:30JNVC0ORAQAD3WIE51IT4QHGIXHQ3","1",2,11,1,"5","<p style=""font-size:100px""><b>V</b></p><p style=""position: absolute; top: 30px; right: 30px; text-align:right; font-size:50px"""">N = 1</p>","V",0,69,394.59999999404,0,"agree",18,5,3,6,5,"36","Male","The third level was really hard. 2 is hard but doable.","Very Strong Disagreement","Very Strong Disagreement","Very Strong Agreement","Very Strong Agreement","Very Strong Agreement","Very Strong Disagreement","Very Strong Agreement","Strong Agreement","Very Strong Agreement","Very Strong Disagreement","Very Strong Disagreement","Very Strong Agreement","Very Strong Disagreement","Very Strong Disagreement","Very Strong Disagreement","Very Strong Agreement","Very Strong Agreement","Very Strong Disagreement"
"60","A3V4AW6DGWBHDO:30JNVC0ORAQAD3WIE51IT4QHGIXHQ3","1",2,12,1,"5","<p style=""font-size:100px""><b>V</b></p><p style=""position: absolute; top: 30px; right: 30px; text-align:right; font-size:50px"""">N = 1</p>","V",0,69,384.40000000596,0,"agree",18,5,3,6,5,"36","Male","The third level was really hard. 2 is hard but doable.","Very Strong Disagreement","Very Strong Disagreement","Very Strong Agreement","Very Strong Agreement","Very Strong Agreement","Very Strong Disagreement","Very Strong Agreement","Strong Agreement","Very Strong Agreement","Very Strong Disagreement","Very Strong Disagreement","Very Strong Agreement","Very Strong Disagreement","Very Strong Disagreement","Very Strong Disagreement","Very Strong Agreement","Very Strong Agreement","Very Strong Disagreement"
"61","A3V4AW6DGWBHDO:30JNVC0ORAQAD3WIE51IT4QHGIXHQ3","1",3,1,1,"50","<p style=""font-size:100px""><b>b</b></p><p style=""position: absolute; top: 30px; right: 30px; text-align:right; font-size:50px"""">N = 1</p>","b",0,73,375.29999999702,1,"agree",19,3,6,4,6,"36","Male","The third level was really hard. 2 is hard but doable.","Very Strong Disagreement","Very Strong Disagreement","Very Strong Agreement","Very Strong Agreement","Very Strong Agreement","Very Strong Disagreement","Very Strong Agreement","Strong Agreement","Very Strong Agreement","Very Strong Disagreement","Very Strong Disagreement","Very Strong Agreement","Very Strong Disagreement","Very Strong Disagreement","Very Strong Disagreement","Very Strong Agreement","Very Strong Agreement","Very Strong Disagreement"
"62","A3V4AW6DGWBHDO:30JNVC0ORAQAD3WIE51IT4QHGIXHQ3","1",3,2,1,"50","<p style=""font-size:100px""><b>b</b></p><p style=""position: absolute; top: 30px; right: 30px; text-align:right; font-size:50px"""">N = 1</p>","b",0,69,514.80000000447,0,"agree",19,3,6,4,6,"36","Male","The third level was really hard. 2 is hard but doable.","Very Strong Disagreement","Very Strong Disagreement","Very Strong Agreement","Very Strong Agreement","Very Strong Agreement","Very Strong Disagreement","Very Strong Agreement","Strong Agreement","Very Strong Agreement","Very Strong Disagreement","Very Strong Disagreement","Very Strong Agreement","Very Strong Disagreement","Very Strong Disagreement","Very Strong Disagreement","Very Strong Agreement","Very Strong Agreement","Very Strong Disagreement"
"63","A3V4AW6DGWBHDO:30JNVC0ORAQAD3WIE51IT4QHGIXHQ3","1",3,3,1,"50","<p style=""font-size:100px""><b>t</b></p><p style=""position: absolute; top: 30px; right: 30px; text-align:right; font-size:50px"""">N = 1</p>","t",0,73,435.60000000149,1,"agree",19,3,6,4,6,"36","Male","The third level was really hard. 2 is hard but doable.","Very Strong Disagreement","Very Strong Disagreement","Very Strong Agreement","Very Strong Agreement","Very Strong Agreement","Very Strong Disagreement","Very Strong Agreement","Strong Agreement","Very Strong Agreement","Very Strong Disagreement","Very Strong Disagreement","Very Strong Agreement","Very Strong Disagreement","Very Strong Disagreement","Very Strong Disagreement","Very Strong Agreement","Very Strong Agreement","Very Strong Disagreement"
"64","A3V4AW6DGWBHDO:30JNVC0ORAQAD3WIE51IT4QHGIXHQ3","1",3,4,1,"50","<p style=""font-size:100px""><b>B</b></p><p style=""position: absolute; top: 30px; right: 30px; text-align:right; font-size:50px"""">N = 1</p>","B",0,73,485.20000000298,1,"agree",19,3,6,4,6,"36","Male","The third level was really hard. 2 is hard but doable.","Very Strong Disagreement","Very Strong Disagreement","Very Strong Agreement","Very Strong Agreement","Very Strong Agreement","Very Strong Disagreement","Very Strong Agreement","Strong Agreement","Very Strong Agreement","Very Strong Disagreement","Very Strong Disagreement","Very Strong Agreement","Very Strong Disagreement","Very Strong Disagreement","Very Strong Disagreement","Very Strong Agreement","Very Strong Agreement","Very Strong Disagreement"
"65","A3V4AW6DGWBHDO:30JNVC0ORAQAD3WIE51IT4QHGIXHQ3","1",3,5,1,"50","<p style=""font-size:100px""><b>T</b></p><p style=""position: absolute; top: 30px; right: 30px; text-align:right; font-size:50px"""">N = 1</p>","T",0,73,383.89999999851,1,"agree",19,3,6,4,6,"36","Male","The third level was really hard. 2 is hard but doable.","Very Strong Disagreement","Very Strong Disagreement","Very Strong Agreement","Very Strong Agreement","Very Strong Agreement","Very Strong Disagreement","Very Strong Agreement","Strong Agreement","Very Strong Agreement","Very Strong Disagreement","Very Strong Disagreement","Very Strong Agreement","Very Strong Disagreement","Very Strong Disagreement","Very Strong Disagreement","Very Strong Agreement","Very Strong Agreement","Very Strong Disagreement"
"66","A3V4AW6DGWBHDO:30JNVC0ORAQAD3WIE51IT4QHGIXHQ3","1",3,6,1,"50","<p style=""font-size:100px""><b>B</b></p><p style=""position: absolute; top: 30px; right: 30px; text-align:right; font-size:50px"""">N = 1</p>","B",0,73,400.80000000447,1,"agree",19,3,6,4,6,"36","Male","The third level was really hard. 2 is hard but doable.","Very Strong Disagreement","Very Strong Disagreement","Very Strong Agreement","Very Strong Agreement","Very Strong Agreement","Very Strong Disagreement","Very Strong Agreement","Strong Agreement","Very Strong Agreement","Very Strong Disagreement","Very Strong Disagreement","Very Strong Agreement","Very Strong Disagreement","Very Strong Disagreement","Very Strong Disagreement","Very Strong Agreement","Very Strong Agreement","Very Strong Disagreement"
"67","A3V4AW6DGWBHDO:30JNVC0ORAQAD3WIE51IT4QHGIXHQ3","1",3,7,1,"50","<p style=""font-size:100px""><b>B</b></p><p style=""position: absolute; top: 30px; right: 30px; text-align:right; font-size:50px"""">N = 1</p>","B",0,69,371.29999999702,0,"agree",19,3,6,4,6,"36","Male","The third level was really hard. 2 is hard but doable.","Very Strong Disagreement","Very Strong Disagreement","Very Strong Agreement","Very Strong Agreement","Very Strong Agreement","Very Strong Disagreement","Very Strong Agreement","Strong Agreement","Very Strong Agreement","Very Strong Disagreement","Very Strong Disagreement","Very Strong Agreement","Very Strong Disagreement","Very Strong Disagreement","Very Strong Disagreement","Very Strong Agreement","Very Strong Agreement","Very Strong Disagreement"
"68","A3V4AW6DGWBHDO:30JNVC0ORAQAD3WIE51IT4QHGIXHQ3","1",3,8,1,"50","<p style=""font-size:100px""><b>t</b></p><p style=""position: absolute; top: 30px; right: 30px; text-align:right; font-size:50px"""">N = 1</p>","t",0,73,454.70000000298,1,"agree",19,3,6,4,6,"36","Male","The third level was really hard. 2 is hard but doable.","Very Strong Disagreement","Very Strong Disagreement","Very Strong Agreement","Very Strong Agreement","Very Strong Agreement","Very Strong Disagreement","Very Strong Agreement","Strong Agreement","Very Strong Agreement","Very Strong Disagreement","Very Strong Disagreement","Very Strong Agreement","Very Strong Disagreement","Very Strong Disagreement","Very Strong Disagreement","Very Strong Agreement","Very Strong Agreement","Very Strong Disagreement"
"69","A3V4AW6DGWBHDO:30JNVC0ORAQAD3WIE51IT4QHGIXHQ3","1",3,9,1,"50","<p style=""font-size:100px""><b>t</b></p><p style=""position: absolute; top: 30px; right: 30px; text-align:right; font-size:50px"""">N = 1</p>","t",0,69,368.60000000149,0,"agree",19,3,6,4,6,"36","Male","The third level was really hard. 2 is hard but doable.","Very Strong Disagreement","Very Strong Disagreement","Very Strong Agreement","Very Strong Agreement","Very Strong Agreement","Very Strong Disagreement","Very Strong Agreement","Strong Agreement","Very Strong Agreement","Very Strong Disagreement","Very Strong Disagreement","Very Strong Agreement","Very Strong Disagreement","Very Strong Disagreement","Very Strong Disagreement","Very Strong Agreement","Very Strong Agreement","Very Strong Disagreement"
"70","A3V4AW6DGWBHDO:30JNVC0ORAQAD3WIE51IT4QHGIXHQ3","1",3,10,1,"50","<p style=""font-size:100px""><b>D</b></p><p style=""position: absolute; top: 30px; right: 30px; text-align:right; font-size:50px"""">N = 1</p>","D",0,73,409,1,"agree",19,3,6,4,6,"36","Male","The third level was really hard. 2 is hard but doable.","Very Strong Disagreement","Very Strong Disagreement","Very Strong Agreement","Very Strong Agreement","Very Strong Agreement","Very Strong Disagreement","Very Strong Agreement","Strong Agreement","Very Strong Agreement","Very Strong Disagreement","Very Strong Disagreement","Very Strong Agreement","Very Strong Disagreement","Very Strong Disagreement","Very Strong Disagreement","Very Strong Agreement","Very Strong Agreement","Very Strong Disagreement"
"71","A3V4AW6DGWBHDO:30JNVC0ORAQAD3WIE51IT4QHGIXHQ3","1",3,11,1,"50","<p style=""font-size:100px""><b>G</b></p><p style=""position: absolute; top: 30px; right: 30px; text-align:right; font-size:50px"""">N = 1</p>","G",0,73,415.60000000149,1,"agree",19,3,6,4,6,"36","Male","The third level was really hard. 2 is hard but doable.","Very Strong Disagreement","Very Strong Disagreement","Very Strong Agreement","Very Strong Agreement","Very Strong Agreement","Very Strong Disagreement","Very Strong Agreement","Strong Agreement","Very Strong Agreement","Very Strong Disagreement","Very Strong Disagreement","Very Strong Agreement","Very Strong Disagreement","Very Strong Disagreement","Very Strong Disagreement","Very Strong Agreement","Very Strong Agreement","Very Strong Disagreement"
"72","A3V4AW6DGWBHDO:30JNVC0ORAQAD3WIE51IT4QHGIXHQ3","1",3,12,1,"50","<p style=""font-size:100px""><b>G</b></p><p style=""position: absolute; top: 30px; right: 30px; text-align:right; font-size:50px"""">N = 1</p>","G",0,69,426.60000000149,0,"agree",19,3,6,4,6,"36","Male","The third level was really hard. 2 is hard but doable.","Very Strong Disagreement","Very Strong Disagreement","Very Strong Agreement","Very Strong Agreement","Very Strong Agreement","Very Strong Disagreement","Very Strong Agreement","Strong Agreement","Very Strong Agreement","Very Strong Disagreement","Very Strong Disagreement","Very Strong Agreement","Very Strong Disagreement","Very Strong Disagreement","Very Strong Disagreement","Very Strong Agreement","Very Strong Agreement","Very Strong Disagreement"
"73","A3V4AW6DGWBHDO:30JNVC0ORAQAD3WIE51IT4QHGIXHQ3","1",4,1,1,"5","<p style=""font-size:100px""><b>d</b></p><p style=""position: absolute; top: 30px; right: 30px; text-align:right; font-size:50px"""">N = 1</p>","d",0,73,882.79999999702,1,"agree",16,10,8,5,9,"36","Male","The third level was really hard. 2 is hard but doable.","Very Strong Disagreement","Very Strong Disagreement","Very Strong Agreement","Very Strong Agreement","Very Strong Agreement","Very Strong Disagreement","Very Strong Agreement","Strong Agreement","Very Strong Agreement","Very Strong Disagreement","Very Strong Disagreement","Very Strong Agreement","Very Strong Disagreement","Very Strong Disagreement","Very Strong Disagreement","Very Strong Agreement","Very Strong Agreement","Very Strong Disagreement"
"74","A3V4AW6DGWBHDO:30JNVC0ORAQAD3WIE51IT4QHGIXHQ3","1",4,2,1,"5","<p style=""font-size:100px""><b>t</b></p><p style=""position: absolute; top: 30px; right: 30px; text-align:right; font-size:50px"""">N = 1</p>","t",0,73,430.89999999851,1,"agree",16,10,8,5,9,"36","Male","The third level was really hard. 2 is hard but doable.","Very Strong Disagreement","Very Strong Disagreement","Very Strong Agreement","Very Strong Agreement","Very Strong Agreement","Very Strong Disagreement","Very Strong Agreement","Strong Agreement","Very Strong Agreement","Very Strong Disagreement","Very Strong Disagreement","Very Strong Agreement","Very Strong Disagreement","Very Strong Disagreement","Very Strong Disagreement","Very Strong Agreement","Very Strong Agreement","Very Strong Disagreement"
"75","A3V4AW6DGWBHDO:30JNVC0ORAQAD3WIE51IT4QHGIXHQ3","1",4,3,1,"5","<p style=""font-size:100px""><b>t</b></p><p style=""position: absolute; top: 30px; right: 30px; text-align:right; font-size:50px"""">N = 1</p>","t",0,69,473.29999999702,0,"agree",16,10,8,5,9,"36","Male","The third level was really hard. 2 is hard but doable.","Very Strong Disagreement","Very Strong Disagreement","Very Strong Agreement","Very Strong Agreement","Very Strong Agreement","Very Strong Disagreement","Very Strong Agreement","Strong Agreement","Very Strong Agreement","Very Strong Disagreement","Very Strong Disagreement","Very Strong Agreement","Very Strong Disagreement","Very Strong Disagreement","Very Strong Disagreement","Very Strong Agreement","Very Strong Agreement","Very Strong Disagreement"
"76","A3V4AW6DGWBHDO:30JNVC0ORAQAD3WIE51IT4QHGIXHQ3","1",4,4,1,"5","<p style=""font-size:100px""><b>b</b></p><p style=""position: absolute; top: 30px; right: 30px; text-align:right; font-size:50px"""">N = 1</p>","b",0,73,404.70000000298,1,"agree",16,10,8,5,9,"36","Male","The third level was really hard. 2 is hard but doable.","Very Strong Disagreement","Very Strong Disagreement","Very Strong Agreement","Very Strong Agreement","Very Strong Agreement","Very Strong Disagreement","Very Strong Agreement","Strong Agreement","Very Strong Agreement","Very Strong Disagreement","Very Strong Disagreement","Very Strong Agreement","Very Strong Disagreement","Very Strong Disagreement","Very Strong Disagreement","Very Strong Agreement","Very Strong Agreement","Very Strong Disagreement"
"77","A3V4AW6DGWBHDO:30JNVC0ORAQAD3WIE51IT4QHGIXHQ3","1",4,5,1,"5","<p style=""font-size:100px""><b>T</b></p><p style=""position: absolute; top: 30px; right: 30px; text-align:right; font-size:50px"""">N = 1</p>","T",0,69,671.5,0,"agree",16,10,8,5,9,"36","Male","The third level was really hard. 2 is hard but doable.","Very Strong Disagreement","Very Strong Disagreement","Very Strong Agreement","Very Strong Agreement","Very Strong Agreement","Very Strong Disagreement","Very Strong Agreement","Strong Agreement","Very Strong Agreement","Very Strong Disagreement","Very Strong Disagreement","Very Strong Agreement","Very Strong Disagreement","Very Strong Disagreement","Very Strong Disagreement","Very Strong Agreement","Very Strong Agreement","Very Strong Disagreement"
"78","A3V4AW6DGWBHDO:30JNVC0ORAQAD3WIE51IT4QHGIXHQ3","1",4,6,1,"5","<p style=""font-size:100px""><b>V</b></p><p style=""position: absolute; top: 30px; right: 30px; text-align:right; font-size:50px"""">N = 1</p>","V",0,73,660.60000000149,1,"agree",16,10,8,5,9,"36","Male","The third level was really hard. 2 is hard but doable.","Very Strong Disagreement","Very Strong Disagreement","Very Strong Agreement","Very Strong Agreement","Very Strong Agreement","Very Strong Disagreement","Very Strong Agreement","Strong Agreement","Very Strong Agreement","Very Strong Disagreement","Very Strong Disagreement","Very Strong Agreement","Very Strong Disagreement","Very Strong Disagreement","Very Strong Disagreement","Very Strong Agreement","Very Strong Agreement","Very Strong Disagreement"
"79","A3V4AW6DGWBHDO:30JNVC0ORAQAD3WIE51IT4QHGIXHQ3","1",4,7,1,"5","<p style=""font-size:100px""><b>V</b></p><p style=""position: absolute; top: 30px; right: 30px; text-align:right; font-size:50px"""">N = 1</p>","V",0,69,612.89999999851,0,"agree",16,10,8,5,9,"36","Male","The third level was really hard. 2 is hard but doable.","Very Strong Disagreement","Very Strong Disagreement","Very Strong Agreement","Very Strong Agreement","Very Strong Agreement","Very Strong Disagreement","Very Strong Agreement","Strong Agreement","Very Strong Agreement","Very Strong Disagreement","Very Strong Disagreement","Very Strong Agreement","Very Strong Disagreement","Very Strong Disagreement","Very Strong Disagreement","Very Strong Agreement","Very Strong Agreement","Very Strong Disagreement"
"80","A3V4AW6DGWBHDO:30JNVC0ORAQAD3WIE51IT4QHGIXHQ3","1",4,8,1,"5","<p style=""font-size:100px""><b>b</b></p><p style=""position: absolute; top: 30px; right: 30px; text-align:right; font-size:50px"""">N = 1</p>","b",0,73,562.20000000298,1,"agree",16,10,8,5,9,"36","Male","The third level was really hard. 2 is hard but doable.","Very Strong Disagreement","Very Strong Disagreement","Very Strong Agreement","Very Strong Agreement","Very Strong Agreement","Very Strong Disagreement","Very Strong Agreement","Strong Agreement","Very Strong Agreement","Very Strong Disagreement","Very Strong Disagreement","Very Strong Agreement","Very Strong Disagreement","Very Strong Disagreement","Very Strong Disagreement","Very Strong Agreement","Very Strong Agreement","Very Strong Disagreement"
"81","A3V4AW6DGWBHDO:30JNVC0ORAQAD3WIE51IT4QHGIXHQ3","1",4,9,1,"5","<p style=""font-size:100px""><b>b</b></p><p style=""position: absolute; top: 30px; right: 30px; text-align:right; font-size:50px"""">N = 1</p>","b",0,69,461.29999999702,0,"agree",16,10,8,5,9,"36","Male","The third level was really hard. 2 is hard but doable.","Very Strong Disagreement","Very Strong Disagreement","Very Strong Agreement","Very Strong Agreement","Very Strong Agreement","Very Strong Disagreement","Very Strong Agreement","Strong Agreement","Very Strong Agreement","Very Strong Disagreement","Very Strong Disagreement","Very Strong Agreement","Very Strong Disagreement","Very Strong Disagreement","Very Strong Disagreement","Very Strong Agreement","Very Strong Agreement","Very Strong Disagreement"
"82","A3V4AW6DGWBHDO:30JNVC0ORAQAD3WIE51IT4QHGIXHQ3","1",4,10,1,"5","<p style=""font-size:100px""><b>b</b></p><p style=""position: absolute; top: 30px; right: 30px; text-align:right; font-size:50px"""">N = 1</p>","b",0,69,493.79999999702,0,"agree",16,10,8,5,9,"36","Male","The third level was really hard. 2 is hard but doable.","Very Strong Disagreement","Very Strong Disagreement","Very Strong Agreement","Very Strong Agreement","Very Strong Agreement","Very Strong Disagreement","Very Strong Agreement","Strong Agreement","Very Strong Agreement","Very Strong Disagreement","Very Strong Disagreement","Very Strong Agreement","Very Strong Disagreement","Very Strong Disagreement","Very Strong Disagreement","Very Strong Agreement","Very Strong Agreement","Very Strong Disagreement"
"83","A3V4AW6DGWBHDO:30JNVC0ORAQAD3WIE51IT4QHGIXHQ3","1",4,11,1,"5","<p style=""font-size:100px""><b>p</b></p><p style=""position: absolute; top: 30px; right: 30px; text-align:right; font-size:50px"""">N = 1</p>","p",0,73,524.79999999702,1,"agree",16,10,8,5,9,"36","Male","The third level was really hard. 2 is hard but doable.","Very Strong Disagreement","Very Strong Disagreement","Very Strong Agreement","Very Strong Agreement","Very Strong Agreement","Very Strong Disagreement","Very Strong Agreement","Strong Agreement","Very Strong Agreement","Very Strong Disagreement","Very Strong Disagreement","Very Strong Agreement","Very Strong Disagreement","Very Strong Disagreement","Very Strong Disagreement","Very Strong Agreement","Very Strong Agreement","Very Strong Disagreement"
"84","A3V4AW6DGWBHDO:30JNVC0ORAQAD3WIE51IT4QHGIXHQ3","1",4,12,1,"5","<p style=""font-size:100px""><b>d</b></p><p style=""position: absolute; top: 30px; right: 30px; text-align:right; font-size:50px"""">N = 1</p>","d",0,73,398,1,"agree",16,10,8,5,9,"36","Male","The third level was really hard. 2 is hard but doable.","Very Strong Disagreement","Very Strong Disagreement","Very Strong Agreement","Very Strong Agreement","Very Strong Agreement","Very Strong Disagreement","Very Strong Agreement","Strong Agreement","Very Strong Agreement","Very Strong Disagreement","Very Strong Disagreement","Very Strong Agreement","Very Strong Disagreement","Very Strong Disagreement","Very Strong Disagreement","Very Strong Agreement","Very Strong Agreement","Very Strong Disagreement"
"85","A3V4AW6DGWBHDO:30JNVC0ORAQAD3WIE51IT4QHGIXHQ3","1",5,1,3,"5","<p style=""font-size:100px""><b>B</b></p><p style=""position: absolute; top: 30px; right: 30px; text-align:right; font-size:50px"""">N = 3</p>","B",0,73,665.29999999702,1,"agree",3,19,17,13,19,"36","Male","The third level was really hard. 2 is hard but doable.","Very Strong Disagreement","Very Strong Disagreement","Very Strong Agreement","Very Strong Agreement","Very Strong Agreement","Very Strong Disagreement","Very Strong Agreement","Strong Agreement","Very Strong Agreement","Very Strong Disagreement","Very Strong Disagreement","Very Strong Agreement","Very Strong Disagreement","Very Strong Disagreement","Very Strong Disagreement","Very Strong Agreement","Very Strong Agreement","Very Strong Disagreement"
"86","A3V4AW6DGWBHDO:30JNVC0ORAQAD3WIE51IT4QHGIXHQ3","1",5,2,3,"5","<p style=""font-size:100px""><b>b</b></p><p style=""position: absolute; top: 30px; right: 30px; text-align:right; font-size:50px"""">N = 3</p>","b",0,73,350.90000000596,1,"agree",3,19,17,13,19,"36","Male","The third level was really hard. 2 is hard but doable.","Very Strong Disagreement","Very Strong Disagreement","Very Strong Agreement","Very Strong Agreement","Very Strong Agreement","Very Strong Disagreement","Very Strong Agreement","Strong Agreement","Very Strong Agreement","Very Strong Disagreement","Very Strong Disagreement","Very Strong Agreement","Very Strong Disagreement","Very Strong Disagreement","Very Strong Disagreement","Very Strong Agreement","Very Strong Agreement","Very Strong Disagreement"
"87","A3V4AW6DGWBHDO:30JNVC0ORAQAD3WIE51IT4QHGIXHQ3","1",5,3,3,"5","<p style=""font-size:100px""><b>T</b></p><p style=""position: absolute; top: 30px; right: 30px; text-align:right; font-size:50px"""">N = 3</p>","T",0,73,379.89999999851,1,"agree",3,19,17,13,19,"36","Male","The third level was really hard. 2 is hard but doable.","Very Strong Disagreement","Very Strong Disagreement","Very Strong Agreement","Very Strong Agreement","Very Strong Agreement","Very Strong Disagreement","Very Strong Agreement","Strong Agreement","Very Strong Agreement","Very Strong Disagreement","Very Strong Disagreement","Very Strong Agreement","Very Strong Disagreement","Very Strong Disagreement","Very Strong Disagreement","Very Strong Agreement","Very Strong Agreement","Very Strong Disagreement"
"88","A3V4AW6DGWBHDO:30JNVC0ORAQAD3WIE51IT4QHGIXHQ3","1",5,4,3,"5","<p style=""font-size:100px""><b>D</b></p><p style=""position: absolute; top: 30px; right: 30px; text-align:right; font-size:50px"""">N = 3</p>","D",0,73,501.70000000298,1,"agree",3,19,17,13,19,"36","Male","The third level was really hard. 2 is hard but doable.","Very Strong Disagreement","Very Strong Disagreement","Very Strong Agreement","Very Strong Agreement","Very Strong Agreement","Very Strong Disagreement","Very Strong Agreement","Strong Agreement","Very Strong Agreement","Very Strong Disagreement","Very Strong Disagreement","Very Strong Agreement","Very Strong Disagreement","Very Strong Disagreement","Very Strong Disagreement","Very Strong Agreement","Very Strong Agreement","Very Strong Disagreement"
"89","A3V4AW6DGWBHDO:30JNVC0ORAQAD3WIE51IT4QHGIXHQ3","1",5,5,3,"5","<p style=""font-size:100px""><b>b</b></p><p style=""position: absolute; top: 30px; right: 30px; text-align:right; font-size:50px"""">N = 3</p>","b",0,69,447.10000000149,0,"agree",3,19,17,13,19,"36","Male","The third level was really hard. 2 is hard but doable.","Very Strong Disagreement","Very Strong Disagreement","Very Strong Agreement","Very Strong Agreement","Very Strong Agreement","Very Strong Disagreement","Very Strong Agreement","Strong Agreement","Very Strong Agreement","Very Strong Disagreement","Very Strong Disagreement","Very Strong Agreement","Very Strong Disagreement","Very Strong Disagreement","Very Strong Disagreement","Very Strong Agreement","Very Strong Agreement","Very Strong Disagreement"
"90","A3V4AW6DGWBHDO:30JNVC0ORAQAD3WIE51IT4QHGIXHQ3","1",5,6,3,"5","<p style=""font-size:100px""><b>P</b></p><p style=""position: absolute; top: 30px; right: 30px; text-align:right; font-size:50px"""">N = 3</p>","P",0,73,529.70000000298,1,"agree",3,19,17,13,19,"36","Male","The third level was really hard. 2 is hard but doable.","Very Strong Disagreement","Very Strong Disagreement","Very Strong Agreement","Very Strong Agreement","Very Strong Agreement","Very Strong Disagreement","Very Strong Agreement","Strong Agreement","Very Strong Agreement","Very Strong Disagreement","Very Strong Disagreement","Very Strong Agreement","Very Strong Disagreement","Very Strong Disagreement","Very Strong Disagreement","Very Strong Agreement","Very Strong Agreement","Very Strong Disagreement"
"91","A3V4AW6DGWBHDO:30JNVC0ORAQAD3WIE51IT4QHGIXHQ3","1",5,7,3,"5","<p style=""font-size:100px""><b>D</b></p><p style=""position: absolute; top: 30px; right: 30px; text-align:right; font-size:50px"""">N = 3</p>","D",0,69,862.70000000298,0,"agree",3,19,17,13,19,"36","Male","The third level was really hard. 2 is hard but doable.","Very Strong Disagreement","Very Strong Disagreement","Very Strong Agreement","Very Strong Agreement","Very Strong Agreement","Very Strong Disagreement","Very Strong Agreement","Strong Agreement","Very Strong Agreement","Very Strong Disagreement","Very Strong Disagreement","Very Strong Agreement","Very Strong Disagreement","Very Strong Disagreement","Very Strong Disagreement","Very Strong Agreement","Very Strong Agreement","Very Strong Disagreement"
"92","A3V4AW6DGWBHDO:30JNVC0ORAQAD3WIE51IT4QHGIXHQ3","1",5,8,3,"5","<p style=""font-size:100px""><b>D</b></p><p style=""position: absolute; top: 30px; right: 30px; text-align:right; font-size:50px"""">N = 3</p>","D",0,73,933.70000000298,1,"agree",3,19,17,13,19,"36","Male","The third level was really hard. 2 is hard but doable.","Very Strong Disagreement","Very Strong Disagreement","Very Strong Agreement","Very Strong Agreement","Very Strong Agreement","Very Strong Disagreement","Very Strong Agreement","Strong Agreement","Very Strong Agreement","Very Strong Disagreement","Very Strong Disagreement","Very Strong Agreement","Very Strong Disagreement","Very Strong Disagreement","Very Strong Disagreement","Very Strong Agreement","Very Strong Agreement","Very Strong Disagreement"
"93","A3V4AW6DGWBHDO:30JNVC0ORAQAD3WIE51IT4QHGIXHQ3","1",5,9,3,"5","<p style=""font-size:100px""><b>P</b></p><p style=""position: absolute; top: 30px; right: 30px; text-align:right; font-size:50px"""">N = 3</p>","P",0,69,737.5,0,"agree",3,19,17,13,19,"36","Male","The third level was really hard. 2 is hard but doable.","Very Strong Disagreement","Very Strong Disagreement","Very Strong Agreement","Very Strong Agreement","Very Strong Agreement","Very Strong Disagreement","Very Strong Agreement","Strong Agreement","Very Strong Agreement","Very Strong Disagreement","Very Strong Disagreement","Very Strong Agreement","Very Strong Disagreement","Very Strong Disagreement","Very Strong Disagreement","Very Strong Agreement","Very Strong Agreement","Very Strong Disagreement"
"94","A3V4AW6DGWBHDO:30JNVC0ORAQAD3WIE51IT4QHGIXHQ3","1",5,10,3,"5","<p style=""font-size:100px""><b>P</b></p><p style=""position: absolute; top: 30px; right: 30px; text-align:right; font-size:50px"""">N = 3</p>","P",0,73,765.20000000298,1,"agree",3,19,17,13,19,"36","Male","The third level was really hard. 2 is hard but doable.","Very Strong Disagreement","Very Strong Disagreement","Very Strong Agreement","Very Strong Agreement","Very Strong Agreement","Very Strong Disagreement","Very Strong Agreement","Strong Agreement","Very Strong Agreement","Very Strong Disagreement","Very Strong Disagreement","Very Strong Agreement","Very Strong Disagreement","Very Strong Disagreement","Very Strong Disagreement","Very Strong Agreement","Very Strong Agreement","Very Strong Disagreement"
"95","A3V4AW6DGWBHDO:30JNVC0ORAQAD3WIE51IT4QHGIXHQ3","1",5,11,3,"5","<p style=""font-size:100px""><b>T</b></p><p style=""position: absolute; top: 30px; right: 30px; text-align:right; font-size:50px"""">N = 3</p>","T",0,69,751,0,"agree",3,19,17,13,19,"36","Male","The third level was really hard. 2 is hard but doable.","Very Strong Disagreement","Very Strong Disagreement","Very Strong Agreement","Very Strong Agreement","Very Strong Agreement","Very Strong Disagreement","Very Strong Agreement","Strong Agreement","Very Strong Agreement","Very Strong Disagreement","Very Strong Disagreement","Very Strong Agreement","Very Strong Disagreement","Very Strong Disagreement","Very Strong Disagreement","Very Strong Agreement","Very Strong Agreement","Very Strong Disagreement"
"96","A3V4AW6DGWBHDO:30JNVC0ORAQAD3WIE51IT4QHGIXHQ3","1",5,12,3,"5","<p style=""font-size:100px""><b>P</b></p><p style=""position: absolute; top: 30px; right: 30px; text-align:right; font-size:50px"""">N = 3</p>","P",0,73,648.20000000298,1,"agree",3,19,17,13,19,"36","Male","The third level was really hard. 2 is hard but doable.","Very Strong Disagreement","Very Strong Disagreement","Very Strong Agreement","Very Strong Agreement","Very Strong Agreement","Very Strong Disagreement","Very Strong Agreement","Strong Agreement","Very Strong Agreement","Very Strong Disagreement","Very Strong Disagreement","Very Strong Agreement","Very Strong Disagreement","Very Strong Disagreement","Very Strong Disagreement","Very Strong Agreement","Very Strong Agreement","Very Strong Disagreement"
"97","A3V4AW6DGWBHDO:30JNVC0ORAQAD3WIE51IT4QHGIXHQ3","1",6,1,1,"5","<p style=""font-size:100px""><b>P</b></p><p style=""position: absolute; top: 30px; right: 30px; text-align:right; font-size:50px"""">N = 1</p>","P",0,73,794.80000000447,1,"agree",18,4,3,5,7,"36","Male","The third level was really hard. 2 is hard but doable.","Very Strong Disagreement","Very Strong Disagreement","Very Strong Agreement","Very Strong Agreement","Very Strong Agreement","Very Strong Disagreement","Very Strong Agreement","Strong Agreement","Very Strong Agreement","Very Strong Disagreement","Very Strong Disagreement","Very Strong Agreement","Very Strong Disagreement","Very Strong Disagreement","Very Strong Disagreement","Very Strong Agreement","Very Strong Agreement","Very Strong Disagreement"
"98","A3V4AW6DGWBHDO:30JNVC0ORAQAD3WIE51IT4QHGIXHQ3","1",6,2,1,"5","<p style=""font-size:100px""><b>v</b></p><p style=""position: absolute; top: 30px; right: 30px; text-align:right; font-size:50px"""">N = 1</p>","v",0,73,421.39999999851,1,"agree",18,4,3,5,7,"36","Male","The third level was really hard. 2 is hard but doable.","Very Strong Disagreement","Very Strong Disagreement","Very Strong Agreement","Very Strong Agreement","Very Strong Agreement","Very Strong Disagreement","Very Strong Agreement","Strong Agreement","Very Strong Agreement","Very Strong Disagreement","Very Strong Disagreement","Very Strong Agreement","Very Strong Disagreement","Very Strong Disagreement","Very Strong Disagreement","Very Strong Agreement","Very Strong Agreement","Very Strong Disagreement"
"99","A3V4AW6DGWBHDO:30JNVC0ORAQAD3WIE51IT4QHGIXHQ3","1",6,3,1,"5","<p style=""font-size:100px""><b>v</b></p><p style=""position: absolute; top: 30px; right: 30px; text-align:right; font-size:50px"""">N = 1</p>","v",0,69,501.5,0,"agree",18,4,3,5,7,"36","Male","The third level was really hard. 2 is hard but doable.","Very Strong Disagreement","Very Strong Disagreement","Very Strong Agreement","Very Strong Agreement","Very Strong Agreement","Very Strong Disagreement","Very Strong Agreement","Strong Agreement","Very Strong Agreement","Very Strong Disagreement","Very Strong Disagreement","Very Strong Agreement","Very Strong Disagreement","Very Strong Disagreement","Very Strong Disagreement","Very Strong Agreement","Very Strong Agreement","Very Strong Disagreement"
"100","A3V4AW6DGWBHDO:30JNVC0ORAQAD3WIE51IT4QHGIXHQ3","1",6,4,1,"5","<p style=""font-size:100px""><b>P</b></p><p style=""position: absolute; top: 30px; right: 30px; text-align:right; font-size:50px"""">N = 1</p>","P",0,73,873.10000000149,1,"agree",18,4,3,5,7,"36","Male","The third level was really hard. 2 is hard but doable.","Very Strong Disagreement","Very Strong Disagreement","Very Strong Agreement","Very Strong Agreement","Very Strong Agreement","Very Strong Disagreement","Very Strong Agreement","Strong Agreement","Very Strong Agreement","Very Strong Disagreement","Very Strong Disagreement","Very Strong Agreement","Very Strong Disagreement","Very Strong Disagreement","Very Strong Disagreement","Very Strong Agreement","Very Strong Agreement","Very Strong Disagreement"
"101","A3V4AW6DGWBHDO:30JNVC0ORAQAD3WIE51IT4QHGIXHQ3","1",6,5,1,"5","<p style=""font-size:100px""><b>t</b></p><p style=""position: absolute; top: 30px; right: 30px; text-align:right; font-size:50px"""">N = 1</p>","t",0,73,565.60000000149,1,"agree",18,4,3,5,7,"36","Male","The third level was really hard. 2 is hard but doable.","Very Strong Disagreement","Very Strong Disagreement","Very Strong Agreement","Very Strong Agreement","Very Strong Agreement","Very Strong Disagreement","Very Strong Agreement","Strong Agreement","Very Strong Agreement","Very Strong Disagreement","Very Strong Disagreement","Very Strong Agreement","Very Strong Disagreement","Very Strong Disagreement","Very Strong Disagreement","Very Strong Agreement","Very Strong Agreement","Very Strong Disagreement"
"102","A3V4AW6DGWBHDO:30JNVC0ORAQAD3WIE51IT4QHGIXHQ3","1",6,6,1,"5","<p style=""font-size:100px""><b>d</b></p><p style=""position: absolute; top: 30px; right: 30px; text-align:right; font-size:50px"""">N = 1</p>","d",0,73,390.80000000447,1,"agree",18,4,3,5,7,"36","Male","The third level was really hard. 2 is hard but doable.","Very Strong Disagreement","Very Strong Disagreement","Very Strong Agreement","Very Strong Agreement","Very Strong Agreement","Very Strong Disagreement","Very Strong Agreement","Strong Agreement","Very Strong Agreement","Very Strong Disagreement","Very Strong Disagreement","Very Strong Agreement","Very Strong Disagreement","Very Strong Disagreement","Very Strong Disagreement","Very Strong Agreement","Very Strong Agreement","Very Strong Disagreement"
"103","A3V4AW6DGWBHDO:30JNVC0ORAQAD3WIE51IT4QHGIXHQ3","1",6,7,1,"5","<p style=""font-size:100px""><b>d</b></p><p style=""position: absolute; top: 30px; right: 30px; text-align:right; font-size:50px"""">N = 1</p>","d",0,69,392.89999999851,0,"agree",18,4,3,5,7,"36","Male","The third level was really hard. 2 is hard but doable.","Very Strong Disagreement","Very Strong Disagreement","Very Strong Agreement","Very Strong Agreement","Very Strong Agreement","Very Strong Disagreement","Very Strong Agreement","Strong Agreement","Very Strong Agreement","Very Strong Disagreement","Very Strong Disagreement","Very Strong Agreement","Very Strong Disagreement","Very Strong Disagreement","Very Strong Disagreement","Very Strong Agreement","Very Strong Agreement","Very Strong Disagreement"
"104","A3V4AW6DGWBHDO:30JNVC0ORAQAD3WIE51IT4QHGIXHQ3","1",6,8,1,"5","<p style=""font-size:100px""><b>b</b></p><p style=""position: absolute; top: 30px; right: 30px; text-align:right; font-size:50px"""">N = 1</p>","b",0,73,442.5,1,"agree",18,4,3,5,7,"36","Male","The third level was really hard. 2 is hard but doable.","Very Strong Disagreement","Very Strong Disagreement","Very Strong Agreement","Very Strong Agreement","Very Strong Agreement","Very Strong Disagreement","Very Strong Agreement","Strong Agreement","Very Strong Agreement","Very Strong Disagreement","Very Strong Disagreement","Very Strong Agreement","Very Strong Disagreement","Very Strong Disagreement","Very Strong Disagreement","Very Strong Agreement","Very Strong Agreement","Very Strong Disagreement"
"105","A3V4AW6DGWBHDO:30JNVC0ORAQAD3WIE51IT4QHGIXHQ3","1",6,9,1,"5","<p style=""font-size:100px""><b>G</b></p><p style=""position: absolute; top: 30px; right: 30px; text-align:right; font-size:50px"""">N = 1</p>","G",0,73,537.39999999851,1,"agree",18,4,3,5,7,"36","Male","The third level was really hard. 2 is hard but doable.","Very Strong Disagreement","Very Strong Disagreement","Very Strong Agreement","Very Strong Agreement","Very Strong Agreement","Very Strong Disagreement","Very Strong Agreement","Strong Agreement","Very Strong Agreement","Very Strong Disagreement","Very Strong Disagreement","Very Strong Agreement","Very Strong Disagreement","Very Strong Disagreement","Very Strong Disagreement","Very Strong Agreement","Very Strong Agreement","Very Strong Disagreement"
"106","A3V4AW6DGWBHDO:30JNVC0ORAQAD3WIE51IT4QHGIXHQ3","1",6,10,1,"5","<p style=""font-size:100px""><b>P</b></p><p style=""position: absolute; top: 30px; right: 30px; text-align:right; font-size:50px"""">N = 1</p>","P",0,73,429.40000000596,1,"agree",18,4,3,5,7,"36","Male","The third level was really hard. 2 is hard but doable.","Very Strong Disagreement","Very Strong Disagreement","Very Strong Agreement","Very Strong Agreement","Very Strong Agreement","Very Strong Disagreement","Very Strong Agreement","Strong Agreement","Very Strong Agreement","Very Strong Disagreement","Very Strong Disagreement","Very Strong Agreement","Very Strong Disagreement","Very Strong Disagreement","Very Strong Disagreement","Very Strong Agreement","Very Strong Agreement","Very Strong Disagreement"
"107","A3V4AW6DGWBHDO:30JNVC0ORAQAD3WIE51IT4QHGIXHQ3","1",6,11,1,"5","<p style=""font-size:100px""><b>P</b></p><p style=""position: absolute; top: 30px; right: 30px; text-align:right; font-size:50px"""">N = 1</p>","P",0,69,379.20000000298,0,"agree",18,4,3,5,7,"36","Male","The third level was really hard. 2 is hard but doable.","Very Strong Disagreement","Very Strong Disagreement","Very Strong Agreement","Very Strong Agreement","Very Strong Agreement","Very Strong Disagreement","Very Strong Agreement","Strong Agreement","Very Strong Agreement","Very Strong Disagreement","Very Strong Disagreement","Very Strong Agreement","Very Strong Disagreement","Very Strong Disagreement","Very Strong Disagreement","Very Strong Agreement","Very Strong Agreement","Very Strong Disagreement"
"108","A3V4AW6DGWBHDO:30JNVC0ORAQAD3WIE51IT4QHGIXHQ3","1",6,12,1,"5","<p style=""font-size:100px""><b>P</b></p><p style=""position: absolute; top: 30px; right: 30px; text-align:right; font-size:50px"""">N = 1</p>","P",0,69,471.5,0,"agree",18,4,3,5,7,"36","Male","The third level was really hard. 2 is hard but doable.","Very Strong Disagreement","Very Strong Disagreement","Very Strong Agreement","Very Strong Agreement","Very Strong Agreement","Very Strong Disagreement","Very Strong Agreement","Strong Agreement","Very Strong Agreement","Very Strong Disagreement","Very Strong Disagreement","Very Strong Agreement","Very Strong Disagreement","Very Strong Disagreement","Very Strong Disagreement","Very Strong Agreement","Very Strong Agreement","Very Strong Disagreement"
"109","A3V4AW6DGWBHDO:30JNVC0ORAQAD3WIE51IT4QHGIXHQ3","2",7,1,2,"5","<p style=""font-size:100px""><b>b</b></p><p style=""position: absolute; top: 30px; right: 30px; text-align:right; font-size:50px"""">N = 2</p>","b",0,73,503.5,1,"agree",15,10,13,9,14,"36","Male","The third level was really hard. 2 is hard but doable.","Very Strong Disagreement","Very Strong Disagreement","Very Strong Agreement","Very Strong Agreement","Very Strong Agreement","Very Strong Disagreement","Very Strong Agreement","Strong Agreement","Very Strong Agreement","Very Strong Disagreement","Very Strong Disagreement","Very Strong Agreement","Very Strong Disagreement","Very Strong Disagreement","Very Strong Disagreement","Very Strong Agreement","Very Strong Agreement","Very Strong Disagreement"
"110","A3V4AW6DGWBHDO:30JNVC0ORAQAD3WIE51IT4QHGIXHQ3","2",7,2,2,"5","<p style=""font-size:100px""><b>G</b></p><p style=""position: absolute; top: 30px; right: 30px; text-align:right; font-size:50px"""">N = 2</p>","G",0,73,427.79999999702,1,"agree",15,10,13,9,14,"36","Male","The third level was really hard. 2 is hard but doable.","Very Strong Disagreement","Very Strong Disagreement","Very Strong Agreement","Very Strong Agreement","Very Strong Agreement","Very Strong Disagreement","Very Strong Agreement","Strong Agreement","Very Strong Agreement","Very Strong Disagreement","Very Strong Disagreement","Very Strong Agreement","Very Strong Disagreement","Very Strong Disagreement","Very Strong Disagreement","Very Strong Agreement","Very Strong Agreement","Very Strong Disagreement"
"111","A3V4AW6DGWBHDO:30JNVC0ORAQAD3WIE51IT4QHGIXHQ3","2",7,3,2,"5","<p style=""font-size:100px""><b>T</b></p><p style=""position: absolute; top: 30px; right: 30px; text-align:right; font-size:50px"""">N = 2</p>","T",0,73,434,1,"agree",15,10,13,9,14,"36","Male","The third level was really hard. 2 is hard but doable.","Very Strong Disagreement","Very Strong Disagreement","Very Strong Agreement","Very Strong Agreement","Very Strong Agreement","Very Strong Disagreement","Very Strong Agreement","Strong Agreement","Very Strong Agreement","Very Strong Disagreement","Very Strong Disagreement","Very Strong Agreement","Very Strong Disagreement","Very Strong Disagreement","Very Strong Disagreement","Very Strong Agreement","Very Strong Agreement","Very Strong Disagreement"
"112","A3V4AW6DGWBHDO:30JNVC0ORAQAD3WIE51IT4QHGIXHQ3","2",7,4,2,"5","<p style=""font-size:100px""><b>G</b></p><p style=""position: absolute; top: 30px; right: 30px; text-align:right; font-size:50px"""">N = 2</p>","G",0,69,495.89999999851,0,"agree",15,10,13,9,14,"36","Male","The third level was really hard. 2 is hard but doable.","Very Strong Disagreement","Very Strong Disagreement","Very Strong Agreement","Very Strong Agreement","Very Strong Agreement","Very Strong Disagreement","Very Strong Agreement","Strong Agreement","Very Strong Agreement","Very Strong Disagreement","Very Strong Disagreement","Very Strong Agreement","Very Strong Disagreement","Very Strong Disagreement","Very Strong Disagreement","Very Strong Agreement","Very Strong Agreement","Very Strong Disagreement"
"113","A3V4AW6DGWBHDO:30JNVC0ORAQAD3WIE51IT4QHGIXHQ3","2",7,5,2,"5","<p style=""font-size:100px""><b>T</b></p><p style=""position: absolute; top: 30px; right: 30px; text-align:right; font-size:50px"""">N = 2</p>","T",0,69,474.5,0,"agree",15,10,13,9,14,"36","Male","The third level was really hard. 2 is hard but doable.","Very Strong Disagreement","Very Strong Disagreement","Very Strong Agreement","Very Strong Agreement","Very Strong Agreement","Very Strong Disagreement","Very Strong Agreement","Strong Agreement","Very Strong Agreement","Very Strong Disagreement","Very Strong Disagreement","Very Strong Agreement","Very Strong Disagreement","Very Strong Disagreement","Very Strong Disagreement","Very Strong Agreement","Very Strong Agreement","Very Strong Disagreement"
"114","A3V4AW6DGWBHDO:30JNVC0ORAQAD3WIE51IT4QHGIXHQ3","2",7,6,2,"5","<p style=""font-size:100px""><b>P</b></p><p style=""position: absolute; top: 30px; right: 30px; text-align:right; font-size:50px"""">N = 2</p>","P",0,73,793.20000000298,1,"agree",15,10,13,9,14,"36","Male","The third level was really hard. 2 is hard but doable.","Very Strong Disagreement","Very Strong Disagreement","Very Strong Agreement","Very Strong Agreement","Very Strong Agreement","Very Strong Disagreement","Very Strong Agreement","Strong Agreement","Very Strong Agreement","Very Strong Disagreement","Very Strong Disagreement","Very Strong Agreement","Very Strong Disagreement","Very Strong Disagreement","Very Strong Disagreement","Very Strong Agreement","Very Strong Agreement","Very Strong Disagreement"
"115","A3V4AW6DGWBHDO:30JNVC0ORAQAD3WIE51IT4QHGIXHQ3","2",7,7,2,"5","<p style=""font-size:100px""><b>G</b></p><p style=""position: absolute; top: 30px; right: 30px; text-align:right; font-size:50px"""">N = 2</p>","G",0,73,599.69999999553,1,"agree",15,10,13,9,14,"36","Male","The third level was really hard. 2 is hard but doable.","Very Strong Disagreement","Very Strong Disagreement","Very Strong Agreement","Very Strong Agreement","Very Strong Agreement","Very Strong Disagreement","Very Strong Agreement","Strong Agreement","Very Strong Agreement","Very Strong Disagreement","Very Strong Disagreement","Very Strong Agreement","Very Strong Disagreement","Very Strong Disagreement","Very Strong Disagreement","Very Strong Agreement","Very Strong Agreement","Very Strong Disagreement"
"116","A3V4AW6DGWBHDO:30JNVC0ORAQAD3WIE51IT4QHGIXHQ3","2",7,8,2,"5","<p style=""font-size:100px""><b>t</b></p><p style=""position: absolute; top: 30px; right: 30px; text-align:right; font-size:50px"""">N = 2</p>","t",0,73,562.70000000298,1,"agree",15,10,13,9,14,"36","Male","The third level was really hard. 2 is hard but doable.","Very Strong Disagreement","Very Strong Disagreement","Very Strong Agreement","Very Strong Agreement","Very Strong Agreement","Very Strong Disagreement","Very Strong Agreement","Strong Agreement","Very Strong Agreement","Very Strong Disagreement","Very Strong Disagreement","Very Strong Agreement","Very Strong Disagreement","Very Strong Disagreement","Very Strong Disagreement","Very Strong Agreement","Very Strong Agreement","Very Strong Disagreement"
"117","A3V4AW6DGWBHDO:30JNVC0ORAQAD3WIE51IT4QHGIXHQ3","2",7,9,2,"5","<p style=""font-size:100px""><b>D</b></p><p style=""position: absolute; top: 30px; right: 30px; text-align:right; font-size:50px"""">N = 2</p>","D",0,73,479,1,"agree",15,10,13,9,14,"36","Male","The third level was really hard. 2 is hard but doable.","Very Strong Disagreement","Very Strong Disagreement","Very Strong Agreement","Very Strong Agreement","Very Strong Agreement","Very Strong Disagreement","Very Strong Agreement","Strong Agreement","Very Strong Agreement","Very Strong Disagreement","Very Strong Disagreement","Very Strong Agreement","Very Strong Disagreement","Very Strong Disagreement","Very Strong Disagreement","Very Strong Agreement","Very Strong Agreement","Very Strong Disagreement"
"118","A3V4AW6DGWBHDO:30JNVC0ORAQAD3WIE51IT4QHGIXHQ3","2",7,10,2,"5","<p style=""font-size:100px""><b>g</b></p><p style=""position: absolute; top: 30px; right: 30px; text-align:right; font-size:50px"""">N = 2</p>","g",0,73,902.29999999702,1,"agree",15,10,13,9,14,"36","Male","The third level was really hard. 2 is hard but doable.","Very Strong Disagreement","Very Strong Disagreement","Very Strong Agreement","Very Strong Agreement","Very Strong Agreement","Very Strong Disagreement","Very Strong Agreement","Strong Agreement","Very Strong Agreement","Very Strong Disagreement","Very Strong Disagreement","Very Strong Agreement","Very Strong Disagreement","Very Strong Disagreement","Very Strong Disagreement","Very Strong Agreement","Very Strong Agreement","Very Strong Disagreement"
"119","A3V4AW6DGWBHDO:30JNVC0ORAQAD3WIE51IT4QHGIXHQ3","2",7,11,2,"5","<p style=""font-size:100px""><b>D</b></p><p style=""position: absolute; top: 30px; right: 30px; text-align:right; font-size:50px"""">N = 2</p>","D",0,69,476.30000000447,0,"agree",15,10,13,9,14,"36","Male","The third level was really hard. 2 is hard but doable.","Very Strong Disagreement","Very Strong Disagreement","Very Strong Agreement","Very Strong Agreement","Very Strong Agreement","Very Strong Disagreement","Very Strong Agreement","Strong Agreement","Very Strong Agreement","Very Strong Disagreement","Very Strong Disagreement","Very Strong Agreement","Very Strong Disagreement","Very Strong Disagreement","Very Strong Disagreement","Very Strong Agreement","Very Strong Agreement","Very Strong Disagreement"
"120","A3V4AW6DGWBHDO:30JNVC0ORAQAD3WIE51IT4QHGIXHQ3","2",7,12,2,"5","<p style=""font-size:100px""><b>g</b></p><p style=""position: absolute; top: 30px; right: 30px; text-align:right; font-size:50px"""">N = 2</p>","g",0,69,847.89999999851,0,"agree",15,10,13,9,14,"36","Male","The third level was really hard. 2 is hard but doable.","Very Strong Disagreement","Very Strong Disagreement","Very Strong Agreement","Very Strong Agreement","Very Strong Agreement","Very Strong Disagreement","Very Strong Agreement","Strong Agreement","Very Strong Agreement","Very Strong Disagreement","Very Strong Disagreement","Very Strong Agreement","Very Strong Disagreement","Very Strong Disagreement","Very Strong Disagreement","Very Strong Agreement","Very Strong Agreement","Very Strong Disagreement"
"121","A3V4AW6DGWBHDO:30JNVC0ORAQAD3WIE51IT4QHGIXHQ3","2",8,1,1,"50","<p style=""font-size:100px""><b>V</b></p><p style=""position: absolute; top: 30px; right: 30px; text-align:right; font-size:50px"""">N = 1</p>","V",0,73,864.59999999404,1,"agree",19,4,3,4,6,"36","Male","The third level was really hard. 2 is hard but doable.","Very Strong Disagreement","Very Strong Disagreement","Very Strong Agreement","Very Strong Agreement","Very Strong Agreement","Very Strong Disagreement","Very Strong Agreement","Strong Agreement","Very Strong Agreement","Very Strong Disagreement","Very Strong Disagreement","Very Strong Agreement","Very Strong Disagreement","Very Strong Disagreement","Very Strong Disagreement","Very Strong Agreement","Very Strong Agreement","Very Strong Disagreement"
"122","A3V4AW6DGWBHDO:30JNVC0ORAQAD3WIE51IT4QHGIXHQ3","2",8,2,1,"50","<p style=""font-size:100px""><b>V</b></p><p style=""position: absolute; top: 30px; right: 30px; text-align:right; font-size:50px"""">N = 1</p>","V",0,69,489.60000000149,0,"agree",19,4,3,4,6,"36","Male","The third level was really hard. 2 is hard but doable.","Very Strong Disagreement","Very Strong Disagreement","Very Strong Agreement","Very Strong Agreement","Very Strong Agreement","Very Strong Disagreement","Very Strong Agreement","Strong Agreement","Very Strong Agreement","Very Strong Disagreement","Very Strong Disagreement","Very Strong Agreement","Very Strong Disagreement","Very Strong Disagreement","Very Strong Disagreement","Very Strong Agreement","Very Strong Agreement","Very Strong Disagreement"
"123","A3V4AW6DGWBHDO:30JNVC0ORAQAD3WIE51IT4QHGIXHQ3","2",8,3,1,"50","<p style=""font-size:100px""><b>V</b></p><p style=""position: absolute; top: 30px; right: 30px; text-align:right; font-size:50px"""">N = 1</p>","V",0,69,384.79999999702,0,"agree",19,4,3,4,6,"36","Male","The third level was really hard. 2 is hard but doable.","Very Strong Disagreement","Very Strong Disagreement","Very Strong Agreement","Very Strong Agreement","Very Strong Agreement","Very Strong Disagreement","Very Strong Agreement","Strong Agreement","Very Strong Agreement","Very Strong Disagreement","Very Strong Disagreement","Very Strong Agreement","Very Strong Disagreement","Very Strong Disagreement","Very Strong Disagreement","Very Strong Agreement","Very Strong Agreement","Very Strong Disagreement"
"124","A3V4AW6DGWBHDO:30JNVC0ORAQAD3WIE51IT4QHGIXHQ3","2",8,4,1,"50","<p style=""font-size:100px""><b>D</b></p><p style=""position: absolute; top: 30px; right: 30px; text-align:right; font-size:50px"""">N = 1</p>","D",0,73,431.29999999702,1,"agree",19,4,3,4,6,"36","Male","The third level was really hard. 2 is hard but doable.","Very Strong Disagreement","Very Strong Disagreement","Very Strong Agreement","Very Strong Agreement","Very Strong Agreement","Very Strong Disagreement","Very Strong Agreement","Strong Agreement","Very Strong Agreement","Very Strong Disagreement","Very Strong Disagreement","Very Strong Agreement","Very Strong Disagreement","Very Strong Disagreement","Very Strong Disagreement","Very Strong Agreement","Very Strong Agreement","Very Strong Disagreement"
"125","A3V4AW6DGWBHDO:30JNVC0ORAQAD3WIE51IT4QHGIXHQ3","2",8,5,1,"50","<p style=""font-size:100px""><b>D</b></p><p style=""position: absolute; top: 30px; right: 30px; text-align:right; font-size:50px"""">N = 1</p>","D",0,69,359.20000000298,0,"agree",19,4,3,4,6,"36","Male","The third level was really hard. 2 is hard but doable.","Very Strong Disagreement","Very Strong Disagreement","Very Strong Agreement","Very Strong Agreement","Very Strong Agreement","Very Strong Disagreement","Very Strong Agreement","Strong Agreement","Very Strong Agreement","Very Strong Disagreement","Very Strong Disagreement","Very Strong Agreement","Very Strong Disagreement","Very Strong Disagreement","Very Strong Disagreement","Very Strong Agreement","Very Strong Agreement","Very Strong Disagreement"
"126","A3V4AW6DGWBHDO:30JNVC0ORAQAD3WIE51IT4QHGIXHQ3","2",8,6,1,"50","<p style=""font-size:100px""><b>B</b></p><p style=""position: absolute; top: 30px; right: 30px; text-align:right; font-size:50px"""">N = 1</p>","B",0,73,397.80000000447,1,"agree",19,4,3,4,6,"36","Male","The third level was really hard. 2 is hard but doable.","Very Strong Disagreement","Very Strong Disagreement","Very Strong Agreement","Very Strong Agreement","Very Strong Agreement","Very Strong Disagreement","Very Strong Agreement","Strong Agreement","Very Strong Agreement","Very Strong Disagreement","Very Strong Disagreement","Very Strong Agreement","Very Strong Disagreement","Very Strong Disagreement","Very Strong Disagreement","Very Strong Agreement","Very Strong Agreement","Very Strong Disagreement"
"127","A3V4AW6DGWBHDO:30JNVC0ORAQAD3WIE51IT4QHGIXHQ3","2",8,7,1,"50","<p style=""font-size:100px""><b>v</b></p><p style=""position: absolute; top: 30px; right: 30px; text-align:right; font-size:50px"""">N = 1</p>","v",0,73,371.60000000149,1,"agree",19,4,3,4,6,"36","Male","The third level was really hard. 2 is hard but doable.","Very Strong Disagreement","Very Strong Disagreement","Very Strong Agreement","Very Strong Agreement","Very Strong Agreement","Very Strong Disagreement","Very Strong Agreement","Strong Agreement","Very Strong Agreement","Very Strong Disagreement","Very Strong Disagreement","Very Strong Agreement","Very Strong Disagreement","Very Strong Disagreement","Very Strong Disagreement","Very Strong Agreement","Very Strong Agreement","Very Strong Disagreement"
