"","subject","run","block","trial","N","reward","stimulus","cue","isTarget","key_press","rt","acc","debrief","performance","frustration","demand","temporal","effort","age","gender","comments","nfc1","nfc2","nfc3","nfc4","nfc5","nfc6","nfc7","nfc8","nfc9","nfc10","nfc11","nfc12","nfc13","nfc14","nfc15","nfc16","nfc17","nfc18"
"1","A3GVUYY3TWRPZT:3URFVVM166OOWH3T10RU3CRBFTJZUF","practice",1,1,1,"NA","<p style=""font-size:100px""><b>v</b></p><p style=""position: absolute; top: 30px; right: 30px; text-align:right; font-size:50px"""">N = 1</p>","v",0,69,8866.89999999851,0,"agree",3,10,19,21,19,"42","female","Instructions were clear but I think I did poorly even though I was completely focused on this study and had no distractions. I just found it difficult recalling the letters, depending on the speed they were shown.","Moderate Disagreement","Moderate Disagreement","Slight Agreement","Strong Agreement","Slight Agreement","Strong Disagreement","Strong Agreement","Slight Agreement","Very Strong Agreement","Moderate Disagreement","Neither Agreement nor Disagreement","Slight Disagreement","Very Strong Disagreement","Slight Agreement","Slight Disagreement","Strong Agreement","Slight Agreement","Moderate Disagreement"
"2","A3GVUYY3TWRPZT:3URFVVM166OOWH3T10RU3CRBFTJZUF","practice",1,2,1,"NA","<p style=""font-size:100px""><b>p</b></p><p style=""position: absolute; top: 30px; right: 30px; text-align:right; font-size:50px"""">N = 1</p>","p",0,73,3351.79999999702,1,"agree",3,10,19,21,19,"42","female","Instructions were clear but I think I did poorly even though I was completely focused on this study and had no distractions. I just found it difficult recalling the letters, depending on the speed they were shown.","Moderate Disagreement","Moderate Disagreement","Slight Agreement","Strong Agreement","Slight Agreement","Strong Disagreement","Strong Agreement","Slight Agreement","Very Strong Agreement","Moderate Disagreement","Neither Agreement nor Disagreement","Slight Disagreement","Very Strong Disagreement","Slight Agreement","Slight Disagreement","Strong Agreement","Slight Agreement","Moderate Disagreement"
"3","A3GVUYY3TWRPZT:3URFVVM166OOWH3T10RU3CRBFTJZUF","practice",1,3,1,"NA","<p style=""font-size:100px""><b>V</b></p><p style=""position: absolute; top: 30px; right: 30px; text-align:right; font-size:50px"""">N = 1</p>","V",0,69,1842.29999999702,0,"agree",3,10,19,21,19,"42","female","Instructions were clear but I think I did poorly even though I was completely focused on this study and had no distractions. I just found it difficult recalling the letters, depending on the speed they were shown.","Moderate Disagreement","Moderate Disagreement","Slight Agreement","Strong Agreement","Slight Agreement","Strong Disagreement","Strong Agreement","Slight Agreement","Very Strong Agreement","Moderate Disagreement","Neither Agreement nor Disagreement","Slight Disagreement","Very Strong Disagreement","Slight Agreement","Slight Disagreement","Strong Agreement","Slight Agreement","Moderate Disagreement"
"4","A3GVUYY3TWRPZT:3URFVVM166OOWH3T10RU3CRBFTJZUF","practice",1,4,1,"NA","<p style=""font-size:100px""><b>V</b></p><p style=""position: absolute; top: 30px; right: 30px; text-align:right; font-size:50px"""">N = 1</p>","V",1,69,1378.5,1,"agree",3,10,19,21,19,"42","female","Instructions were clear but I think I did poorly even though I was completely focused on this study and had no distractions. I just found it difficult recalling the letters, depending on the speed they were shown.","Moderate Disagreement","Moderate Disagreement","Slight Agreement","Strong Agreement","Slight Agreement","Strong Disagreement","Strong Agreement","Slight Agreement","Very Strong Agreement","Moderate Disagreement","Neither Agreement nor Disagreement","Slight Disagreement","Very Strong Disagreement","Slight Agreement","Slight Disagreement","Strong Agreement","Slight Agreement","Moderate Disagreement"
"5","A3GVUYY3TWRPZT:3URFVVM166OOWH3T10RU3CRBFTJZUF","practice",1,5,1,"NA","<p style=""font-size:100px""><b>G</b></p><p style=""position: absolute; top: 30px; right: 30px; text-align:right; font-size:50px"""">N = 1</p>","G",0,73,1141.19999999553,1,"agree",3,10,19,21,19,"42","female","Instructions were clear but I think I did poorly even though I was completely focused on this study and had no distractions. I just found it difficult recalling the letters, depending on the speed they were shown.","Moderate Disagreement","Moderate Disagreement","Slight Agreement","Strong Agreement","Slight Agreement","Strong Disagreement","Strong Agreement","Slight Agreement","Very Strong Agreement","Moderate Disagreement","Neither Agreement nor Disagreement","Slight Disagreement","Very Strong Disagreement","Slight Agreement","Slight Disagreement","Strong Agreement","Slight Agreement","Moderate Disagreement"
"6","A3GVUYY3TWRPZT:3URFVVM166OOWH3T10RU3CRBFTJZUF","practice",1,6,1,"NA","<p style=""font-size:100px""><b>B</b></p><p style=""position: absolute; top: 30px; right: 30px; text-align:right; font-size:50px"""">N = 1</p>","B",0,73,2607.5,1,"agree",3,10,19,21,19,"42","female","Instructions were clear but I think I did poorly even though I was completely focused on this study and had no distractions. I just found it difficult recalling the letters, depending on the speed they were shown.","Moderate Disagreement","Moderate Disagreement","Slight Agreement","Strong Agreement","Slight Agreement","Strong Disagreement","Strong Agreement","Slight Agreement","Very Strong Agreement","Moderate Disagreement","Neither Agreement nor Disagreement","Slight Disagreement","Very Strong Disagreement","Slight Agreement","Slight Disagreement","Strong Agreement","Slight Agreement","Moderate Disagreement"
"7","A3GVUYY3TWRPZT:3URFVVM166OOWH3T10RU3CRBFTJZUF","practice",1,7,1,"NA","<p style=""font-size:100px""><b>B</b></p><p style=""position: absolute; top: 30px; right: 30px; text-align:right; font-size:50px"""">N = 1</p>","B",1,69,806.5,1,"agree",3,10,19,21,19,"42","female","Instructions were clear but I think I did poorly even though I was completely focused on this study and had no distractions. I just found it difficult recalling the letters, depending on the speed they were shown.","Moderate Disagreement","Moderate Disagreement","Slight Agreement","Strong Agreement","Slight Agreement","Strong Disagreement","Strong Agreement","Slight Agreement","Very Strong Agreement","Moderate Disagreement","Neither Agreement nor Disagreement","Slight Disagreement","Very Strong Disagreement","Slight Agreement","Slight Disagreement","Strong Agreement","Slight Agreement","Moderate Disagreement"
"8","A3GVUYY3TWRPZT:3URFVVM166OOWH3T10RU3CRBFTJZUF","practice",1,8,1,"NA","<p style=""font-size:100px""><b>D</b></p><p style=""position: absolute; top: 30px; right: 30px; text-align:right; font-size:50px"""">N = 1</p>","D",0,73,1386.40000000596,1,"agree",3,10,19,21,19,"42","female","Instructions were clear but I think I did poorly even though I was completely focused on this study and had no distractions. I just found it difficult recalling the letters, depending on the speed they were shown.","Moderate Disagreement","Moderate Disagreement","Slight Agreement","Strong Agreement","Slight Agreement","Strong Disagreement","Strong Agreement","Slight Agreement","Very Strong Agreement","Moderate Disagreement","Neither Agreement nor Disagreement","Slight Disagreement","Very Strong Disagreement","Slight Agreement","Slight Disagreement","Strong Agreement","Slight Agreement","Moderate Disagreement"
"9","A3GVUYY3TWRPZT:3URFVVM166OOWH3T10RU3CRBFTJZUF","practice",1,9,1,"NA","<p style=""font-size:100px""><b>V</b></p><p style=""position: absolute; top: 30px; right: 30px; text-align:right; font-size:50px"""">N = 1</p>","V",0,73,1372.39999999851,1,"agree",3,10,19,21,19,"42","female","Instructions were clear but I think I did poorly even though I was completely focused on this study and had no distractions. I just found it difficult recalling the letters, depending on the speed they were shown.","Moderate Disagreement","Moderate Disagreement","Slight Agreement","Strong Agreement","Slight Agreement","Strong Disagreement","Strong Agreement","Slight Agreement","Very Strong Agreement","Moderate Disagreement","Neither Agreement nor Disagreement","Slight Disagreement","Very Strong Disagreement","Slight Agreement","Slight Disagreement","Strong Agreement","Slight Agreement","Moderate Disagreement"
"10","A3GVUYY3TWRPZT:3URFVVM166OOWH3T10RU3CRBFTJZUF","practice",1,10,1,"NA","<p style=""font-size:100px""><b>V</b></p><p style=""position: absolute; top: 30px; right: 30px; text-align:right; font-size:50px"""">N = 1</p>","V",1,73,1632.60000000149,0,"agree",3,10,19,21,19,"42","female","Instructions were clear but I think I did poorly even though I was completely focused on this study and had no distractions. I just found it difficult recalling the letters, depending on the speed they were shown.","Moderate Disagreement","Moderate Disagreement","Slight Agreement","Strong Agreement","Slight Agreement","Strong Disagreement","Strong Agreement","Slight Agreement","Very Strong Agreement","Moderate Disagreement","Neither Agreement nor Disagreement","Slight Disagreement","Very Strong Disagreement","Slight Agreement","Slight Disagreement","Strong Agreement","Slight Agreement","Moderate Disagreement"
"11","A3GVUYY3TWRPZT:3URFVVM166OOWH3T10RU3CRBFTJZUF","practice",1,11,1,"NA","<p style=""font-size:100px""><b>P</b></p><p style=""position: absolute; top: 30px; right: 30px; text-align:right; font-size:50px"""">N = 1</p>","P",0,73,1842.89999999851,1,"agree",3,10,19,21,19,"42","female","Instructions were clear but I think I did poorly even though I was completely focused on this study and had no distractions. I just found it difficult recalling the letters, depending on the speed they were shown.","Moderate Disagreement","Moderate Disagreement","Slight Agreement","Strong Agreement","Slight Agreement","Strong Disagreement","Strong Agreement","Slight Agreement","Very Strong Agreement","Moderate Disagreement","Neither Agreement nor Disagreement","Slight Disagreement","Very Strong Disagreement","Slight Agreement","Slight Disagreement","Strong Agreement","Slight Agreement","Moderate Disagreement"
"12","A3GVUYY3TWRPZT:3URFVVM166OOWH3T10RU3CRBFTJZUF","practice",1,12,1,"NA","<p style=""font-size:100px""><b>P</b></p><p style=""position: absolute; top: 30px; right: 30px; text-align:right; font-size:50px"""">N = 1</p>","P",1,69,537.19999999553,1,"agree",3,10,19,21,19,"42","female","Instructions were clear but I think I did poorly even though I was completely focused on this study and had no distractions. I just found it difficult recalling the letters, depending on the speed they were shown.","Moderate Disagreement","Moderate Disagreement","Slight Agreement","Strong Agreement","Slight Agreement","Strong Disagreement","Strong Agreement","Slight Agreement","Very Strong Agreement","Moderate Disagreement","Neither Agreement nor Disagreement","Slight Disagreement","Very Strong Disagreement","Slight Agreement","Slight Disagreement","Strong Agreement","Slight Agreement","Moderate Disagreement"
"13","A3GVUYY3TWRPZT:3URFVVM166OOWH3T10RU3CRBFTJZUF","practice",2,1,2,"NA","<p style=""font-size:100px""><b>G</b></p><p style=""position: absolute; top: 30px; right: 30px; text-align:right; font-size:50px"""">N = 2</p>","G",0,73,4324.5,1,"agree",3,10,19,21,19,"42","female","Instructions were clear but I think I did poorly even though I was completely focused on this study and had no distractions. I just found it difficult recalling the letters, depending on the speed they were shown.","Moderate Disagreement","Moderate Disagreement","Slight Agreement","Strong Agreement","Slight Agreement","Strong Disagreement","Strong Agreement","Slight Agreement","Very Strong Agreement","Moderate Disagreement","Neither Agreement nor Disagreement","Slight Disagreement","Very Strong Disagreement","Slight Agreement","Slight Disagreement","Strong Agreement","Slight Agreement","Moderate Disagreement"
"14","A3GVUYY3TWRPZT:3URFVVM166OOWH3T10RU3CRBFTJZUF","practice",2,2,2,"NA","<p style=""font-size:100px""><b>g</b></p><p style=""position: absolute; top: 30px; right: 30px; text-align:right; font-size:50px"""">N = 2</p>","g",0,73,3168.89999999851,1,"agree",3,10,19,21,19,"42","female","Instructions were clear but I think I did poorly even though I was completely focused on this study and had no distractions. I just found it difficult recalling the letters, depending on the speed they were shown.","Moderate Disagreement","Moderate Disagreement","Slight Agreement","Strong Agreement","Slight Agreement","Strong Disagreement","Strong Agreement","Slight Agreement","Very Strong Agreement","Moderate Disagreement","Neither Agreement nor Disagreement","Slight Disagreement","Very Strong Disagreement","Slight Agreement","Slight Disagreement","Strong Agreement","Slight Agreement","Moderate Disagreement"
"15","A3GVUYY3TWRPZT:3URFVVM166OOWH3T10RU3CRBFTJZUF","practice",2,3,2,"NA","<p style=""font-size:100px""><b>p</b></p><p style=""position: absolute; top: 30px; right: 30px; text-align:right; font-size:50px"""">N = 2</p>","p",0,73,1577.89999999851,1,"agree",3,10,19,21,19,"42","female","Instructions were clear but I think I did poorly even though I was completely focused on this study and had no distractions. I just found it difficult recalling the letters, depending on the speed they were shown.","Moderate Disagreement","Moderate Disagreement","Slight Agreement","Strong Agreement","Slight Agreement","Strong Disagreement","Strong Agreement","Slight Agreement","Very Strong Agreement","Moderate Disagreement","Neither Agreement nor Disagreement","Slight Disagreement","Very Strong Disagreement","Slight Agreement","Slight Disagreement","Strong Agreement","Slight Agreement","Moderate Disagreement"
"16","A3GVUYY3TWRPZT:3URFVVM166OOWH3T10RU3CRBFTJZUF","practice",2,4,2,"NA","<p style=""font-size:100px""><b>g</b></p><p style=""position: absolute; top: 30px; right: 30px; text-align:right; font-size:50px"""">N = 2</p>","g",1,69,1952.39999999851,1,"agree",3,10,19,21,19,"42","female","Instructions were clear but I think I did poorly even though I was completely focused on this study and had no distractions. I just found it difficult recalling the letters, depending on the speed they were shown.","Moderate Disagreement","Moderate Disagreement","Slight Agreement","Strong Agreement","Slight Agreement","Strong Disagreement","Strong Agreement","Slight Agreement","Very Strong Agreement","Moderate Disagreement","Neither Agreement nor Disagreement","Slight Disagreement","Very Strong Disagreement","Slight Agreement","Slight Disagreement","Strong Agreement","Slight Agreement","Moderate Disagreement"
"17","A3GVUYY3TWRPZT:3URFVVM166OOWH3T10RU3CRBFTJZUF","practice",2,5,2,"NA","<p style=""font-size:100px""><b>p</b></p><p style=""position: absolute; top: 30px; right: 30px; text-align:right; font-size:50px"""">N = 2</p>","p",1,69,1488.80000000447,1,"agree",3,10,19,21,19,"42","female","Instructions were clear but I think I did poorly even though I was completely focused on this study and had no distractions. I just found it difficult recalling the letters, depending on the speed they were shown.","Moderate Disagreement","Moderate Disagreement","Slight Agreement","Strong Agreement","Slight Agreement","Strong Disagreement","Strong Agreement","Slight Agreement","Very Strong Agreement","Moderate Disagreement","Neither Agreement nor Disagreement","Slight Disagreement","Very Strong Disagreement","Slight Agreement","Slight Disagreement","Strong Agreement","Slight Agreement","Moderate Disagreement"
"18","A3GVUYY3TWRPZT:3URFVVM166OOWH3T10RU3CRBFTJZUF","practice",2,6,2,"NA","<p style=""font-size:100px""><b>P</b></p><p style=""position: absolute; top: 30px; right: 30px; text-align:right; font-size:50px"""">N = 2</p>","P",0,73,2450.90000000596,1,"agree",3,10,19,21,19,"42","female","Instructions were clear but I think I did poorly even though I was completely focused on this study and had no distractions. I just found it difficult recalling the letters, depending on the speed they were shown.","Moderate Disagreement","Moderate Disagreement","Slight Agreement","Strong Agreement","Slight Agreement","Strong Disagreement","Strong Agreement","Slight Agreement","Very Strong Agreement","Moderate Disagreement","Neither Agreement nor Disagreement","Slight Disagreement","Very Strong Disagreement","Slight Agreement","Slight Disagreement","Strong Agreement","Slight Agreement","Moderate Disagreement"
"19","A3GVUYY3TWRPZT:3URFVVM166OOWH3T10RU3CRBFTJZUF","practice",2,7,2,"NA","<p style=""font-size:100px""><b>p</b></p><p style=""position: absolute; top: 30px; right: 30px; text-align:right; font-size:50px"""">N = 2</p>","p",1,69,1134.79999999702,1,"agree",3,10,19,21,19,"42","female","Instructions were clear but I think I did poorly even though I was completely focused on this study and had no distractions. I just found it difficult recalling the letters, depending on the speed they were shown.","Moderate Disagreement","Moderate Disagreement","Slight Agreement","Strong Agreement","Slight Agreement","Strong Disagreement","Strong Agreement","Slight Agreement","Very Strong Agreement","Moderate Disagreement","Neither Agreement nor Disagreement","Slight Disagreement","Very Strong Disagreement","Slight Agreement","Slight Disagreement","Strong Agreement","Slight Agreement","Moderate Disagreement"
"20","A3GVUYY3TWRPZT:3URFVVM166OOWH3T10RU3CRBFTJZUF","practice",2,8,2,"NA","<p style=""font-size:100px""><b>P</b></p><p style=""position: absolute; top: 30px; right: 30px; text-align:right; font-size:50px"""">N = 2</p>","P",1,73,1961.10000000149,0,"agree",3,10,19,21,19,"42","female","Instructions were clear but I think I did poorly even though I was completely focused on this study and had no distractions. I just found it difficult recalling the letters, depending on the speed they were shown.","Moderate Disagreement","Moderate Disagreement","Slight Agreement","Strong Agreement","Slight Agreement","Strong Disagreement","Strong Agreement","Slight Agreement","Very Strong Agreement","Moderate Disagreement","Neither Agreement nor Disagreement","Slight Disagreement","Very Strong Disagreement","Slight Agreement","Slight Disagreement","Strong Agreement","Slight Agreement","Moderate Disagreement"
"21","A3GVUYY3TWRPZT:3URFVVM166OOWH3T10RU3CRBFTJZUF","practice",2,9,2,"NA","<p style=""font-size:100px""><b>t</b></p><p style=""position: absolute; top: 30px; right: 30px; text-align:right; font-size:50px"""">N = 2</p>","t",0,73,2460.70000000298,1,"agree",3,10,19,21,19,"42","female","Instructions were clear but I think I did poorly even though I was completely focused on this study and had no distractions. I just found it difficult recalling the letters, depending on the speed they were shown.","Moderate Disagreement","Moderate Disagreement","Slight Agreement","Strong Agreement","Slight Agreement","Strong Disagreement","Strong Agreement","Slight Agreement","Very Strong Agreement","Moderate Disagreement","Neither Agreement nor Disagreement","Slight Disagreement","Very Strong Disagreement","Slight Agreement","Slight Disagreement","Strong Agreement","Slight Agreement","Moderate Disagreement"
"22","A3GVUYY3TWRPZT:3URFVVM166OOWH3T10RU3CRBFTJZUF","practice",2,10,2,"NA","<p style=""font-size:100px""><b>G</b></p><p style=""position: absolute; top: 30px; right: 30px; text-align:right; font-size:50px"""">N = 2</p>","G",0,73,1388.30000000447,1,"agree",3,10,19,21,19,"42","female","Instructions were clear but I think I did poorly even though I was completely focused on this study and had no distractions. I just found it difficult recalling the letters, depending on the speed they were shown.","Moderate Disagreement","Moderate Disagreement","Slight Agreement","Strong Agreement","Slight Agreement","Strong Disagreement","Strong Agreement","Slight Agreement","Very Strong Agreement","Moderate Disagreement","Neither Agreement nor Disagreement","Slight Disagreement","Very Strong Disagreement","Slight Agreement","Slight Disagreement","Strong Agreement","Slight Agreement","Moderate Disagreement"
"23","A3GVUYY3TWRPZT:3URFVVM166OOWH3T10RU3CRBFTJZUF","practice",2,11,2,"NA","<p style=""font-size:100px""><b>V</b></p><p style=""position: absolute; top: 30px; right: 30px; text-align:right; font-size:50px"""">N = 2</p>","V",0,73,1719.10000000149,1,"agree",3,10,19,21,19,"42","female","Instructions were clear but I think I did poorly even though I was completely focused on this study and had no distractions. I just found it difficult recalling the letters, depending on the speed they were shown.","Moderate Disagreement","Moderate Disagreement","Slight Agreement","Strong Agreement","Slight Agreement","Strong Disagreement","Strong Agreement","Slight Agreement","Very Strong Agreement","Moderate Disagreement","Neither Agreement nor Disagreement","Slight Disagreement","Very Strong Disagreement","Slight Agreement","Slight Disagreement","Strong Agreement","Slight Agreement","Moderate Disagreement"
"24","A3GVUYY3TWRPZT:3URFVVM166OOWH3T10RU3CRBFTJZUF","practice",2,12,2,"NA","<p style=""font-size:100px""><b>B</b></p><p style=""position: absolute; top: 30px; right: 30px; text-align:right; font-size:50px"""">N = 2</p>","B",0,73,1025.09999999404,1,"agree",3,10,19,21,19,"42","female","Instructions were clear but I think I did poorly even though I was completely focused on this study and had no distractions. I just found it difficult recalling the letters, depending on the speed they were shown.","Moderate Disagreement","Moderate Disagreement","Slight Agreement","Strong Agreement","Slight Agreement","Strong Disagreement","Strong Agreement","Slight Agreement","Very Strong Agreement","Moderate Disagreement","Neither Agreement nor Disagreement","Slight Disagreement","Very Strong Disagreement","Slight Agreement","Slight Disagreement","Strong Agreement","Slight Agreement","Moderate Disagreement"
"25","A3GVUYY3TWRPZT:3URFVVM166OOWH3T10RU3CRBFTJZUF","practice",3,1,3,"NA","<p style=""font-size:100px""><b>T</b></p><p style=""position: absolute; top: 30px; right: 30px; text-align:right; font-size:50px"""">N = 3</p>","T",0,69,2354.30000000447,0,"agree",3,10,19,21,19,"42","female","Instructions were clear but I think I did poorly even though I was completely focused on this study and had no distractions. I just found it difficult recalling the letters, depending on the speed they were shown.","Moderate Disagreement","Moderate Disagreement","Slight Agreement","Strong Agreement","Slight Agreement","Strong Disagreement","Strong Agreement","Slight Agreement","Very Strong Agreement","Moderate Disagreement","Neither Agreement nor Disagreement","Slight Disagreement","Very Strong Disagreement","Slight Agreement","Slight Disagreement","Strong Agreement","Slight Agreement","Moderate Disagreement"
"26","A3GVUYY3TWRPZT:3URFVVM166OOWH3T10RU3CRBFTJZUF","practice",3,2,3,"NA","<p style=""font-size:100px""><b>D</b></p><p style=""position: absolute; top: 30px; right: 30px; text-align:right; font-size:50px"""">N = 3</p>","D",0,73,3272.5,1,"agree",3,10,19,21,19,"42","female","Instructions were clear but I think I did poorly even though I was completely focused on this study and had no distractions. I just found it difficult recalling the letters, depending on the speed they were shown.","Moderate Disagreement","Moderate Disagreement","Slight Agreement","Strong Agreement","Slight Agreement","Strong Disagreement","Strong Agreement","Slight Agreement","Very Strong Agreement","Moderate Disagreement","Neither Agreement nor Disagreement","Slight Disagreement","Very Strong Disagreement","Slight Agreement","Slight Disagreement","Strong Agreement","Slight Agreement","Moderate Disagreement"
"27","A3GVUYY3TWRPZT:3URFVVM166OOWH3T10RU3CRBFTJZUF","practice",3,3,3,"NA","<p style=""font-size:100px""><b>V</b></p><p style=""position: absolute; top: 30px; right: 30px; text-align:right; font-size:50px"""">N = 3</p>","V",0,73,2832.39999999851,1,"agree",3,10,19,21,19,"42","female","Instructions were clear but I think I did poorly even though I was completely focused on this study and had no distractions. I just found it difficult recalling the letters, depending on the speed they were shown.","Moderate Disagreement","Moderate Disagreement","Slight Agreement","Strong Agreement","Slight Agreement","Strong Disagreement","Strong Agreement","Slight Agreement","Very Strong Agreement","Moderate Disagreement","Neither Agreement nor Disagreement","Slight Disagreement","Very Strong Disagreement","Slight Agreement","Slight Disagreement","Strong Agreement","Slight Agreement","Moderate Disagreement"
"28","A3GVUYY3TWRPZT:3URFVVM166OOWH3T10RU3CRBFTJZUF","practice",3,4,3,"NA","<p style=""font-size:100px""><b>P</b></p><p style=""position: absolute; top: 30px; right: 30px; text-align:right; font-size:50px"""">N = 3</p>","P",0,73,1493.09999999404,1,"agree",3,10,19,21,19,"42","female","Instructions were clear but I think I did poorly even though I was completely focused on this study and had no distractions. I just found it difficult recalling the letters, depending on the speed they were shown.","Moderate Disagreement","Moderate Disagreement","Slight Agreement","Strong Agreement","Slight Agreement","Strong Disagreement","Strong Agreement","Slight Agreement","Very Strong Agreement","Moderate Disagreement","Neither Agreement nor Disagreement","Slight Disagreement","Very Strong Disagreement","Slight Agreement","Slight Disagreement","Strong Agreement","Slight Agreement","Moderate Disagreement"
"29","A3GVUYY3TWRPZT:3URFVVM166OOWH3T10RU3CRBFTJZUF","practice",3,5,3,"NA","<p style=""font-size:100px""><b>D</b></p><p style=""position: absolute; top: 30px; right: 30px; text-align:right; font-size:50px"""">N = 3</p>","D",1,69,1125.40000000596,1,"agree",3,10,19,21,19,"42","female","Instructions were clear but I think I did poorly even though I was completely focused on this study and had no distractions. I just found it difficult recalling the letters, depending on the speed they were shown.","Moderate Disagreement","Moderate Disagreement","Slight Agreement","Strong Agreement","Slight Agreement","Strong Disagreement","Strong Agreement","Slight Agreement","Very Strong Agreement","Moderate Disagreement","Neither Agreement nor Disagreement","Slight Disagreement","Very Strong Disagreement","Slight Agreement","Slight Disagreement","Strong Agreement","Slight Agreement","Moderate Disagreement"
"30","A3GVUYY3TWRPZT:3URFVVM166OOWH3T10RU3CRBFTJZUF","practice",3,6,3,"NA","<p style=""font-size:100px""><b>b</b></p><p style=""position: absolute; top: 30px; right: 30px; text-align:right; font-size:50px"""">N = 3</p>","b",0,73,1062.10000000149,1,"agree",3,10,19,21,19,"42","female","Instructions were clear but I think I did poorly even though I was completely focused on this study and had no distractions. I just found it difficult recalling the letters, depending on the speed they were shown.","Moderate Disagreement","Moderate Disagreement","Slight Agreement","Strong Agreement","Slight Agreement","Strong Disagreement","Strong Agreement","Slight Agreement","Very Strong Agreement","Moderate Disagreement","Neither Agreement nor Disagreement","Slight Disagreement","Very Strong Disagreement","Slight Agreement","Slight Disagreement","Strong Agreement","Slight Agreement","Moderate Disagreement"
"31","A3GVUYY3TWRPZT:3URFVVM166OOWH3T10RU3CRBFTJZUF","practice",3,7,3,"NA","<p style=""font-size:100px""><b>P</b></p><p style=""position: absolute; top: 30px; right: 30px; text-align:right; font-size:50px"""">N = 3</p>","P",1,69,931,1,"agree",3,10,19,21,19,"42","female","Instructions were clear but I think I did poorly even though I was completely focused on this study and had no distractions. I just found it difficult recalling the letters, depending on the speed they were shown.","Moderate Disagreement","Moderate Disagreement","Slight Agreement","Strong Agreement","Slight Agreement","Strong Disagreement","Strong Agreement","Slight Agreement","Very Strong Agreement","Moderate Disagreement","Neither Agreement nor Disagreement","Slight Disagreement","Very Strong Disagreement","Slight Agreement","Slight Disagreement","Strong Agreement","Slight Agreement","Moderate Disagreement"
"32","A3GVUYY3TWRPZT:3URFVVM166OOWH3T10RU3CRBFTJZUF","practice",3,8,3,"NA","<p style=""font-size:100px""><b>p</b></p><p style=""position: absolute; top: 30px; right: 30px; text-align:right; font-size:50px"""">N = 3</p>","p",0,73,1899.89999999851,1,"agree",3,10,19,21,19,"42","female","Instructions were clear but I think I did poorly even though I was completely focused on this study and had no distractions. I just found it difficult recalling the letters, depending on the speed they were shown.","Moderate Disagreement","Moderate Disagreement","Slight Agreement","Strong Agreement","Slight Agreement","Strong Disagreement","Strong Agreement","Slight Agreement","Very Strong Agreement","Moderate Disagreement","Neither Agreement nor Disagreement","Slight Disagreement","Very Strong Disagreement","Slight Agreement","Slight Disagreement","Strong Agreement","Slight Agreement","Moderate Disagreement"
"33","A3GVUYY3TWRPZT:3URFVVM166OOWH3T10RU3CRBFTJZUF","practice",3,9,3,"NA","<p style=""font-size:100px""><b>b</b></p><p style=""position: absolute; top: 30px; right: 30px; text-align:right; font-size:50px"""">N = 3</p>","b",1,69,946.59999999404,1,"agree",3,10,19,21,19,"42","female","Instructions were clear but I think I did poorly even though I was completely focused on this study and had no distractions. I just found it difficult recalling the letters, depending on the speed they were shown.","Moderate Disagreement","Moderate Disagreement","Slight Agreement","Strong Agreement","Slight Agreement","Strong Disagreement","Strong Agreement","Slight Agreement","Very Strong Agreement","Moderate Disagreement","Neither Agreement nor Disagreement","Slight Disagreement","Very Strong Disagreement","Slight Agreement","Slight Disagreement","Strong Agreement","Slight Agreement","Moderate Disagreement"
"34","A3GVUYY3TWRPZT:3URFVVM166OOWH3T10RU3CRBFTJZUF","practice",3,10,3,"NA","<p style=""font-size:100px""><b>v</b></p><p style=""position: absolute; top: 30px; right: 30px; text-align:right; font-size:50px"""">N = 3</p>","v",0,73,1950.5,1,"agree",3,10,19,21,19,"42","female","Instructions were clear but I think I did poorly even though I was completely focused on this study and had no distractions. I just found it difficult recalling the letters, depending on the speed they were shown.","Moderate Disagreement","Moderate Disagreement","Slight Agreement","Strong Agreement","Slight Agreement","Strong Disagreement","Strong Agreement","Slight Agreement","Very Strong Agreement","Moderate Disagreement","Neither Agreement nor Disagreement","Slight Disagreement","Very Strong Disagreement","Slight Agreement","Slight Disagreement","Strong Agreement","Slight Agreement","Moderate Disagreement"
"35","A3GVUYY3TWRPZT:3URFVVM166OOWH3T10RU3CRBFTJZUF","practice",3,11,3,"NA","<p style=""font-size:100px""><b>p</b></p><p style=""position: absolute; top: 30px; right: 30px; text-align:right; font-size:50px"""">N = 3</p>","p",1,69,1502.69999999553,1,"agree",3,10,19,21,19,"42","female","Instructions were clear but I think I did poorly even though I was completely focused on this study and had no distractions. I just found it difficult recalling the letters, depending on the speed they were shown.","Moderate Disagreement","Moderate Disagreement","Slight Agreement","Strong Agreement","Slight Agreement","Strong Disagreement","Strong Agreement","Slight Agreement","Very Strong Agreement","Moderate Disagreement","Neither Agreement nor Disagreement","Slight Disagreement","Very Strong Disagreement","Slight Agreement","Slight Disagreement","Strong Agreement","Slight Agreement","Moderate Disagreement"
"36","A3GVUYY3TWRPZT:3URFVVM166OOWH3T10RU3CRBFTJZUF","practice",3,12,3,"NA","<p style=""font-size:100px""><b>d</b></p><p style=""position: absolute; top: 30px; right: 30px; text-align:right; font-size:50px"""">N = 3</p>","d",0,73,1538.60000000149,1,"agree",3,10,19,21,19,"42","female","Instructions were clear but I think I did poorly even though I was completely focused on this study and had no distractions. I just found it difficult recalling the letters, depending on the speed they were shown.","Moderate Disagreement","Moderate Disagreement","Slight Agreement","Strong Agreement","Slight Agreement","Strong Disagreement","Strong Agreement","Slight Agreement","Very Strong Agreement","Moderate Disagreement","Neither Agreement nor Disagreement","Slight Disagreement","Very Strong Disagreement","Slight Agreement","Slight Disagreement","Strong Agreement","Slight Agreement","Moderate Disagreement"
"37","A3GVUYY3TWRPZT:3URFVVM166OOWH3T10RU3CRBFTJZUF","1",1,1,1,"5","<p style=""font-size:100px""><b>V</b></p><p style=""position: absolute; top: 30px; right: 30px; text-align:right; font-size:50px"""">N = 1</p>","V",0,NA,NA,0,"agree",3,10,19,21,19,"42","female","Instructions were clear but I think I did poorly even though I was completely focused on this study and had no distractions. I just found it difficult recalling the letters, depending on the speed they were shown.","Moderate Disagreement","Moderate Disagreement","Slight Agreement","Strong Agreement","Slight Agreement","Strong Disagreement","Strong Agreement","Slight Agreement","Very Strong Agreement","Moderate Disagreement","Neither Agreement nor Disagreement","Slight Disagreement","Very Strong Disagreement","Slight Agreement","Slight Disagreement","Strong Agreement","Slight Agreement","Moderate Disagreement"
"38","A3GVUYY3TWRPZT:3URFVVM166OOWH3T10RU3CRBFTJZUF","1",1,2,1,"5","<p style=""font-size:100px""><b>p</b></p><p style=""position: absolute; top: 30px; right: 30px; text-align:right; font-size:50px"""">N = 1</p>","p",0,NA,NA,0,"agree",3,10,19,21,19,"42","female","Instructions were clear but I think I did poorly even though I was completely focused on this study and had no distractions. I just found it difficult recalling the letters, depending on the speed they were shown.","Moderate Disagreement","Moderate Disagreement","Slight Agreement","Strong Agreement","Slight Agreement","Strong Disagreement","Strong Agreement","Slight Agreement","Very Strong Agreement","Moderate Disagreement","Neither Agreement nor Disagreement","Slight Disagreement","Very Strong Disagreement","Slight Agreement","Slight Disagreement","Strong Agreement","Slight Agreement","Moderate Disagreement"
"39","A3GVUYY3TWRPZT:3URFVVM166OOWH3T10RU3CRBFTJZUF","1",1,3,1,"5","<p style=""font-size:100px""><b>p</b></p><p style=""position: absolute; top: 30px; right: 30px; text-align:right; font-size:50px"""">N = 1</p>","p",0,69,728.89999999851,0,"agree",3,10,19,21,19,"42","female","Instructions were clear but I think I did poorly even though I was completely focused on this study and had no distractions. I just found it difficult recalling the letters, depending on the speed they were shown.","Moderate Disagreement","Moderate Disagreement","Slight Agreement","Strong Agreement","Slight Agreement","Strong Disagreement","Strong Agreement","Slight Agreement","Very Strong Agreement","Moderate Disagreement","Neither Agreement nor Disagreement","Slight Disagreement","Very Strong Disagreement","Slight Agreement","Slight Disagreement","Strong Agreement","Slight Agreement","Moderate Disagreement"
"40","A3GVUYY3TWRPZT:3URFVVM166OOWH3T10RU3CRBFTJZUF","1",1,4,1,"5","<p style=""font-size:100px""><b>b</b></p><p style=""position: absolute; top: 30px; right: 30px; text-align:right; font-size:50px"""">N = 1</p>","b",0,73,742.30000000447,1,"agree",3,10,19,21,19,"42","female","Instructions were clear but I think I did poorly even though I was completely focused on this study and had no distractions. I just found it difficult recalling the letters, depending on the speed they were shown.","Moderate Disagreement","Moderate Disagreement","Slight Agreement","Strong Agreement","Slight Agreement","Strong Disagreement","Strong Agreement","Slight Agreement","Very Strong Agreement","Moderate Disagreement","Neither Agreement nor Disagreement","Slight Disagreement","Very Strong Disagreement","Slight Agreement","Slight Disagreement","Strong Agreement","Slight Agreement","Moderate Disagreement"
"41","A3GVUYY3TWRPZT:3URFVVM166OOWH3T10RU3CRBFTJZUF","1",1,5,1,"5","<p style=""font-size:100px""><b>b</b></p><p style=""position: absolute; top: 30px; right: 30px; text-align:right; font-size:50px"""">N = 1</p>","b",0,NA,NA,0,"agree",3,10,19,21,19,"42","female","Instructions were clear but I think I did poorly even though I was completely focused on this study and had no distractions. I just found it difficult recalling the letters, depending on the speed they were shown.","Moderate Disagreement","Moderate Disagreement","Slight Agreement","Strong Agreement","Slight Agreement","Strong Disagreement","Strong Agreement","Slight Agreement","Very Strong Agreement","Moderate Disagreement","Neither Agreement nor Disagreement","Slight Disagreement","Very Strong Disagreement","Slight Agreement","Slight Disagreement","Strong Agreement","Slight Agreement","Moderate Disagreement"
"42","A3GVUYY3TWRPZT:3URFVVM166OOWH3T10RU3CRBFTJZUF","1",1,6,1,"5","<p style=""font-size:100px""><b>P</b></p><p style=""position: absolute; top: 30px; right: 30px; text-align:right; font-size:50px"""">N = 1</p>","P",0,69,794.5,0,"agree",3,10,19,21,19,"42","female","Instructions were clear but I think I did poorly even though I was completely focused on this study and had no distractions. I just found it difficult recalling the letters, depending on the speed they were shown.","Moderate Disagreement","Moderate Disagreement","Slight Agreement","Strong Agreement","Slight Agreement","Strong Disagreement","Strong Agreement","Slight Agreement","Very Strong Agreement","Moderate Disagreement","Neither Agreement nor Disagreement","Slight Disagreement","Very Strong Disagreement","Slight Agreement","Slight Disagreement","Strong Agreement","Slight Agreement","Moderate Disagreement"
"43","A3GVUYY3TWRPZT:3URFVVM166OOWH3T10RU3CRBFTJZUF","1",1,7,1,"5","<p style=""font-size:100px""><b>d</b></p><p style=""position: absolute; top: 30px; right: 30px; text-align:right; font-size:50px"""">N = 1</p>","d",0,73,781.60000000149,1,"agree",3,10,19,21,19,"42","female","Instructions were clear but I think I did poorly even though I was completely focused on this study and had no distractions. I just found it difficult recalling the letters, depending on the speed they were shown.","Moderate Disagreement","Moderate Disagreement","Slight Agreement","Strong Agreement","Slight Agreement","Strong Disagreement","Strong Agreement","Slight Agreement","Very Strong Agreement","Moderate Disagreement","Neither Agreement nor Disagreement","Slight Disagreement","Very Strong Disagreement","Slight Agreement","Slight Disagreement","Strong Agreement","Slight Agreement","Moderate Disagreement"
"44","A3GVUYY3TWRPZT:3URFVVM166OOWH3T10RU3CRBFTJZUF","1",1,8,1,"5","<p style=""font-size:100px""><b>b</b></p><p style=""position: absolute; top: 30px; right: 30px; text-align:right; font-size:50px"""">N = 1</p>","b",0,69,692.30000000447,0,"agree",3,10,19,21,19,"42","female","Instructions were clear but I think I did poorly even though I was completely focused on this study and had no distractions. I just found it difficult recalling the letters, depending on the speed they were shown.","Moderate Disagreement","Moderate Disagreement","Slight Agreement","Strong Agreement","Slight Agreement","Strong Disagreement","Strong Agreement","Slight Agreement","Very Strong Agreement","Moderate Disagreement","Neither Agreement nor Disagreement","Slight Disagreement","Very Strong Disagreement","Slight Agreement","Slight Disagreement","Strong Agreement","Slight Agreement","Moderate Disagreement"
"45","A3GVUYY3TWRPZT:3URFVVM166OOWH3T10RU3CRBFTJZUF","1",1,9,1,"5","<p style=""font-size:100px""><b>G</b></p><p style=""position: absolute; top: 30px; right: 30px; text-align:right; font-size:50px"""">N = 1</p>","G",0,73,847.10000000149,1,"agree",3,10,19,21,19,"42","female","Instructions were clear but I think I did poorly even though I was completely focused on this study and had no distractions. I just found it difficult recalling the letters, depending on the speed they were shown.","Moderate Disagreement","Moderate Disagreement","Slight Agreement","Strong Agreement","Slight Agreement","Strong Disagreement","Strong Agreement","Slight Agreement","Very Strong Agreement","Moderate Disagreement","Neither Agreement nor Disagreement","Slight Disagreement","Very Strong Disagreement","Slight Agreement","Slight Disagreement","Strong Agreement","Slight Agreement","Moderate Disagreement"
"46","A3GVUYY3TWRPZT:3URFVVM166OOWH3T10RU3CRBFTJZUF","1",1,10,1,"5","<p style=""font-size:100px""><b>t</b></p><p style=""position: absolute; top: 30px; right: 30px; text-align:right; font-size:50px"""">N = 1</p>","t",0,69,802.5,0,"agree",3,10,19,21,19,"42","female","Instructions were clear but I think I did poorly even though I was completely focused on this study and had no distractions. I just found it difficult recalling the letters, depending on the speed they were shown.","Moderate Disagreement","Moderate Disagreement","Slight Agreement","Strong Agreement","Slight Agreement","Strong Disagreement","Strong Agreement","Slight Agreement","Very Strong Agreement","Moderate Disagreement","Neither Agreement nor Disagreement","Slight Disagreement","Very Strong Disagreement","Slight Agreement","Slight Disagreement","Strong Agreement","Slight Agreement","Moderate Disagreement"
"47","A3GVUYY3TWRPZT:3URFVVM166OOWH3T10RU3CRBFTJZUF","1",1,11,1,"5","<p style=""font-size:100px""><b>t</b></p><p style=""position: absolute; top: 30px; right: 30px; text-align:right; font-size:50px"""">N = 1</p>","t",0,69,839.89999999851,0,"agree",3,10,19,21,19,"42","female","Instructions were clear but I think I did poorly even though I was completely focused on this study and had no distractions. I just found it difficult recalling the letters, depending on the speed they were shown.","Moderate Disagreement","Moderate Disagreement","Slight Agreement","Strong Agreement","Slight Agreement","Strong Disagreement","Strong Agreement","Slight Agreement","Very Strong Agreement","Moderate Disagreement","Neither Agreement nor Disagreement","Slight Disagreement","Very Strong Disagreement","Slight Agreement","Slight Disagreement","Strong Agreement","Slight Agreement","Moderate Disagreement"
"48","A3GVUYY3TWRPZT:3URFVVM166OOWH3T10RU3CRBFTJZUF","1",1,12,1,"5","<p style=""font-size:100px""><b>t</b></p><p style=""position: absolute; top: 30px; right: 30px; text-align:right; font-size:50px"""">N = 1</p>","t",0,69,844.89999999851,0,"agree",3,10,19,21,19,"42","female","Instructions were clear but I think I did poorly even though I was completely focused on this study and had no distractions. I just found it difficult recalling the letters, depending on the speed they were shown.","Moderate Disagreement","Moderate Disagreement","Slight Agreement","Strong Agreement","Slight Agreement","Strong Disagreement","Strong Agreement","Slight Agreement","Very Strong Agreement","Moderate Disagreement","Neither Agreement nor Disagreement","Slight Disagreement","Very Strong Disagreement","Slight Agreement","Slight Disagreement","Strong Agreement","Slight Agreement","Moderate Disagreement"
"49","A3GVUYY3TWRPZT:3URFVVM166OOWH3T10RU3CRBFTJZUF","1",2,1,3,"50","<p style=""font-size:100px""><b>d</b></p><p style=""position: absolute; top: 30px; right: 30px; text-align:right; font-size:50px"""">N = 3</p>","d",0,NA,NA,0,"agree",2,14,14,17,16,"42","female","Instructions were clear but I think I did poorly even though I was completely focused on this study and had no distractions. I just found it difficult recalling the letters, depending on the speed they were shown.","Moderate Disagreement","Moderate Disagreement","Slight Agreement","Strong Agreement","Slight Agreement","Strong Disagreement","Strong Agreement","Slight Agreement","Very Strong Agreement","Moderate Disagreement","Neither Agreement nor Disagreement","Slight Disagreement","Very Strong Disagreement","Slight Agreement","Slight Disagreement","Strong Agreement","Slight Agreement","Moderate Disagreement"
"50","A3GVUYY3TWRPZT:3URFVVM166OOWH3T10RU3CRBFTJZUF","1",2,2,3,"50","<p style=""font-size:100px""><b>v</b></p><p style=""position: absolute; top: 30px; right: 30px; text-align:right; font-size:50px"""">N = 3</p>","v",0,NA,NA,0,"agree",2,14,14,17,16,"42","female","Instructions were clear but I think I did poorly even though I was completely focused on this study and had no distractions. I just found it difficult recalling the letters, depending on the speed they were shown.","Moderate Disagreement","Moderate Disagreement","Slight Agreement","Strong Agreement","Slight Agreement","Strong Disagreement","Strong Agreement","Slight Agreement","Very Strong Agreement","Moderate Disagreement","Neither Agreement nor Disagreement","Slight Disagreement","Very Strong Disagreement","Slight Agreement","Slight Disagreement","Strong Agreement","Slight Agreement","Moderate Disagreement"
"51","A3GVUYY3TWRPZT:3URFVVM166OOWH3T10RU3CRBFTJZUF","1",2,3,3,"50","<p style=""font-size:100px""><b>D</b></p><p style=""position: absolute; top: 30px; right: 30px; text-align:right; font-size:50px"""">N = 3</p>","D",0,NA,NA,0,"agree",2,14,14,17,16,"42","female","Instructions were clear but I think I did poorly even though I was completely focused on this study and had no distractions. I just found it difficult recalling the letters, depending on the speed they were shown.","Moderate Disagreement","Moderate Disagreement","Slight Agreement","Strong Agreement","Slight Agreement","Strong Disagreement","Strong Agreement","Slight Agreement","Very Strong Agreement","Moderate Disagreement","Neither Agreement nor Disagreement","Slight Disagreement","Very Strong Disagreement","Slight Agreement","Slight Disagreement","Strong Agreement","Slight Agreement","Moderate Disagreement"
"52","A3GVUYY3TWRPZT:3URFVVM166OOWH3T10RU3CRBFTJZUF","1",2,4,3,"50","<p style=""font-size:100px""><b>d</b></p><p style=""position: absolute; top: 30px; right: 30px; text-align:right; font-size:50px"""">N = 3</p>","d",0,69,702.39999999851,0,"agree",2,14,14,17,16,"42","female","Instructions were clear but I think I did poorly even though I was completely focused on this study and had no distractions. I just found it difficult recalling the letters, depending on the speed they were shown.","Moderate Disagreement","Moderate Disagreement","Slight Agreement","Strong Agreement","Slight Agreement","Strong Disagreement","Strong Agreement","Slight Agreement","Very Strong Agreement","Moderate Disagreement","Neither Agreement nor Disagreement","Slight Disagreement","Very Strong Disagreement","Slight Agreement","Slight Disagreement","Strong Agreement","Slight Agreement","Moderate Disagreement"
"53","A3GVUYY3TWRPZT:3URFVVM166OOWH3T10RU3CRBFTJZUF","1",2,5,3,"50","<p style=""font-size:100px""><b>d</b></p><p style=""position: absolute; top: 30px; right: 30px; text-align:right; font-size:50px"""">N = 3</p>","d",0,69,632.79999999702,0,"agree",2,14,14,17,16,"42","female","Instructions were clear but I think I did poorly even though I was completely focused on this study and had no distractions. I just found it difficult recalling the letters, depending on the speed they were shown.","Moderate Disagreement","Moderate Disagreement","Slight Agreement","Strong Agreement","Slight Agreement","Strong Disagreement","Strong Agreement","Slight Agreement","Very Strong Agreement","Moderate Disagreement","Neither Agreement nor Disagreement","Slight Disagreement","Very Strong Disagreement","Slight Agreement","Slight Disagreement","Strong Agreement","Slight Agreement","Moderate Disagreement"
"54","A3GVUYY3TWRPZT:3URFVVM166OOWH3T10RU3CRBFTJZUF","1",2,6,3,"50","<p style=""font-size:100px""><b>B</b></p><p style=""position: absolute; top: 30px; right: 30px; text-align:right; font-size:50px"""">N = 3</p>","B",0,73,546.80000000447,1,"agree",2,14,14,17,16,"42","female","Instructions were clear but I think I did poorly even though I was completely focused on this study and had no distractions. I just found it difficult recalling the letters, depending on the speed they were shown.","Moderate Disagreement","Moderate Disagreement","Slight Agreement","Strong Agreement","Slight Agreement","Strong Disagreement","Strong Agreement","Slight Agreement","Very Strong Agreement","Moderate Disagreement","Neither Agreement nor Disagreement","Slight Disagreement","Very Strong Disagreement","Slight Agreement","Slight Disagreement","Strong Agreement","Slight Agreement","Moderate Disagreement"
"55","A3GVUYY3TWRPZT:3URFVVM166OOWH3T10RU3CRBFTJZUF","1",2,7,3,"50","<p style=""font-size:100px""><b>V</b></p><p style=""position: absolute; top: 30px; right: 30px; text-align:right; font-size:50px"""">N = 3</p>","V",0,73,728.39999999851,1,"agree",2,14,14,17,16,"42","female","Instructions were clear but I think I did poorly even though I was completely focused on this study and had no distractions. I just found it difficult recalling the letters, depending on the speed they were shown.","Moderate Disagreement","Moderate Disagreement","Slight Agreement","Strong Agreement","Slight Agreement","Strong Disagreement","Strong Agreement","Slight Agreement","Very Strong Agreement","Moderate Disagreement","Neither Agreement nor Disagreement","Slight Disagreement","Very Strong Disagreement","Slight Agreement","Slight Disagreement","Strong Agreement","Slight Agreement","Moderate Disagreement"
"56","A3GVUYY3TWRPZT:3URFVVM166OOWH3T10RU3CRBFTJZUF","1",2,8,3,"50","<p style=""font-size:100px""><b>V</b></p><p style=""position: absolute; top: 30px; right: 30px; text-align:right; font-size:50px"""">N = 3</p>","V",0,73,881.29999999702,1,"agree",2,14,14,17,16,"42","female","Instructions were clear but I think I did poorly even though I was completely focused on this study and had no distractions. I just found it difficult recalling the letters, depending on the speed they were shown.","Moderate Disagreement","Moderate Disagreement","Slight Agreement","Strong Agreement","Slight Agreement","Strong Disagreement","Strong Agreement","Slight Agreement","Very Strong Agreement","Moderate Disagreement","Neither Agreement nor Disagreement","Slight Disagreement","Very Strong Disagreement","Slight Agreement","Slight Disagreement","Strong Agreement","Slight Agreement","Moderate Disagreement"
"57","A3GVUYY3TWRPZT:3URFVVM166OOWH3T10RU3CRBFTJZUF","1",2,9,3,"50","<p style=""font-size:100px""><b>B</b></p><p style=""position: absolute; top: 30px; right: 30px; text-align:right; font-size:50px"""">N = 3</p>","B",0,69,690.40000000596,0,"agree",2,14,14,17,16,"42","female","Instructions were clear but I think I did poorly even though I was completely focused on this study and had no distractions. I just found it difficult recalling the letters, depending on the speed they were shown.","Moderate Disagreement","Moderate Disagreement","Slight Agreement","Strong Agreement","Slight Agreement","Strong Disagreement","Strong Agreement","Slight Agreement","Very Strong Agreement","Moderate Disagreement","Neither Agreement nor Disagreement","Slight Disagreement","Very Strong Disagreement","Slight Agreement","Slight Disagreement","Strong Agreement","Slight Agreement","Moderate Disagreement"
"58","A3GVUYY3TWRPZT:3URFVVM166OOWH3T10RU3CRBFTJZUF","1",2,10,3,"50","<p style=""font-size:100px""><b>g</b></p><p style=""position: absolute; top: 30px; right: 30px; text-align:right; font-size:50px"""">N = 3</p>","g",0,73,778.20000000298,1,"agree",2,14,14,17,16,"42","female","Instructions were clear but I think I did poorly even though I was completely focused on this study and had no distractions. I just found it difficult recalling the letters, depending on the speed they were shown.","Moderate Disagreement","Moderate Disagreement","Slight Agreement","Strong Agreement","Slight Agreement","Strong Disagreement","Strong Agreement","Slight Agreement","Very Strong Agreement","Moderate Disagreement","Neither Agreement nor Disagreement","Slight Disagreement","Very Strong Disagreement","Slight Agreement","Slight Disagreement","Strong Agreement","Slight Agreement","Moderate Disagreement"
"59","A3GVUYY3TWRPZT:3URFVVM166OOWH3T10RU3CRBFTJZUF","1",2,11,3,"50","<p style=""font-size:100px""><b>V</b></p><p style=""position: absolute; top: 30px; right: 30px; text-align:right; font-size:50px"""">N = 3</p>","V",0,69,630.10000000149,0,"agree",2,14,14,17,16,"42","female","Instructions were clear but I think I did poorly even though I was completely focused on this study and had no distractions. I just found it difficult recalling the letters, depending on the speed they were shown.","Moderate Disagreement","Moderate Disagreement","Slight Agreement","Strong Agreement","Slight Agreement","Strong Disagreement","Strong Agreement","Slight Agreement","Very Strong Agreement","Moderate Disagreement","Neither Agreement nor Disagreement","Slight Disagreement","Very Strong Disagreement","Slight Agreement","Slight Disagreement","Strong Agreement","Slight Agreement","Moderate Disagreement"
"60","A3GVUYY3TWRPZT:3URFVVM166OOWH3T10RU3CRBFTJZUF","1",2,12,3,"50","<p style=""font-size:100px""><b>B</b></p><p style=""position: absolute; top: 30px; right: 30px; text-align:right; font-size:50px"""">N = 3</p>","B",0,69,762.80000000447,0,"agree",2,14,14,17,16,"42","female","Instructions were clear but I think I did poorly even though I was completely focused on this study and had no distractions. I just found it difficult recalling the letters, depending on the speed they were shown.","Moderate Disagreement","Moderate Disagreement","Slight Agreement","Strong Agreement","Slight Agreement","Strong Disagreement","Strong Agreement","Slight Agreement","Very Strong Agreement","Moderate Disagreement","Neither Agreement nor Disagreement","Slight Disagreement","Very Strong Disagreement","Slight Agreement","Slight Disagreement","Strong Agreement","Slight Agreement","Moderate Disagreement"
"61","A3GVUYY3TWRPZT:3URFVVM166OOWH3T10RU3CRBFTJZUF","1",3,1,1,"50","<p style=""font-size:100px""><b>V</b></p><p style=""position: absolute; top: 30px; right: 30px; text-align:right; font-size:50px"""">N = 1</p>","V",0,NA,NA,0,"agree",6,13,13,11,13,"42","female","Instructions were clear but I think I did poorly even though I was completely focused on this study and had no distractions. I just found it difficult recalling the letters, depending on the speed they were shown.","Moderate Disagreement","Moderate Disagreement","Slight Agreement","Strong Agreement","Slight Agreement","Strong Disagreement","Strong Agreement","Slight Agreement","Very Strong Agreement","Moderate Disagreement","Neither Agreement nor Disagreement","Slight Disagreement","Very Strong Disagreement","Slight Agreement","Slight Disagreement","Strong Agreement","Slight Agreement","Moderate Disagreement"
"62","A3GVUYY3TWRPZT:3URFVVM166OOWH3T10RU3CRBFTJZUF","1",3,2,1,"50","<p style=""font-size:100px""><b>G</b></p><p style=""position: absolute; top: 30px; right: 30px; text-align:right; font-size:50px"""">N = 1</p>","G",0,73,482.5,1,"agree",6,13,13,11,13,"42","female","Instructions were clear but I think I did poorly even though I was completely focused on this study and had no distractions. I just found it difficult recalling the letters, depending on the speed they were shown.","Moderate Disagreement","Moderate Disagreement","Slight Agreement","Strong Agreement","Slight Agreement","Strong Disagreement","Strong Agreement","Slight Agreement","Very Strong Agreement","Moderate Disagreement","Neither Agreement nor Disagreement","Slight Disagreement","Very Strong Disagreement","Slight Agreement","Slight Disagreement","Strong Agreement","Slight Agreement","Moderate Disagreement"
"63","A3GVUYY3TWRPZT:3URFVVM166OOWH3T10RU3CRBFTJZUF","1",3,3,1,"50","<p style=""font-size:100px""><b>D</b></p><p style=""position: absolute; top: 30px; right: 30px; text-align:right; font-size:50px"""">N = 1</p>","D",0,73,640.60000000149,1,"agree",6,13,13,11,13,"42","female","Instructions were clear but I think I did poorly even though I was completely focused on this study and had no distractions. I just found it difficult recalling the letters, depending on the speed they were shown.","Moderate Disagreement","Moderate Disagreement","Slight Agreement","Strong Agreement","Slight Agreement","Strong Disagreement","Strong Agreement","Slight Agreement","Very Strong Agreement","Moderate Disagreement","Neither Agreement nor Disagreement","Slight Disagreement","Very Strong Disagreement","Slight Agreement","Slight Disagreement","Strong Agreement","Slight Agreement","Moderate Disagreement"
"64","A3GVUYY3TWRPZT:3URFVVM166OOWH3T10RU3CRBFTJZUF","1",3,4,1,"50","<p style=""font-size:100px""><b>D</b></p><p style=""position: absolute; top: 30px; right: 30px; text-align:right; font-size:50px"""">N = 1</p>","D",0,69,645.20000000298,0,"agree",6,13,13,11,13,"42","female","Instructions were clear but I think I did poorly even though I was completely focused on this study and had no distractions. I just found it difficult recalling the letters, depending on the speed they were shown.","Moderate Disagreement","Moderate Disagreement","Slight Agreement","Strong Agreement","Slight Agreement","Strong Disagreement","Strong Agreement","Slight Agreement","Very Strong Agreement","Moderate Disagreement","Neither Agreement nor Disagreement","Slight Disagreement","Very Strong Disagreement","Slight Agreement","Slight Disagreement","Strong Agreement","Slight Agreement","Moderate Disagreement"
"65","A3GVUYY3TWRPZT:3URFVVM166OOWH3T10RU3CRBFTJZUF","1",3,5,1,"50","<p style=""font-size:100px""><b>T</b></p><p style=""position: absolute; top: 30px; right: 30px; text-align:right; font-size:50px"""">N = 1</p>","T",0,73,657.30000000447,1,"agree",6,13,13,11,13,"42","female","Instructions were clear but I think I did poorly even though I was completely focused on this study and had no distractions. I just found it difficult recalling the letters, depending on the speed they were shown.","Moderate Disagreement","Moderate Disagreement","Slight Agreement","Strong Agreement","Slight Agreement","Strong Disagreement","Strong Agreement","Slight Agreement","Very Strong Agreement","Moderate Disagreement","Neither Agreement nor Disagreement","Slight Disagreement","Very Strong Disagreement","Slight Agreement","Slight Disagreement","Strong Agreement","Slight Agreement","Moderate Disagreement"
"66","A3GVUYY3TWRPZT:3URFVVM166OOWH3T10RU3CRBFTJZUF","1",3,6,1,"50","<p style=""font-size:100px""><b>T</b></p><p style=""position: absolute; top: 30px; right: 30px; text-align:right; font-size:50px"""">N = 1</p>","T",0,69,497.80000000447,0,"agree",6,13,13,11,13,"42","female","Instructions were clear but I think I did poorly even though I was completely focused on this study and had no distractions. I just found it difficult recalling the letters, depending on the speed they were shown.","Moderate Disagreement","Moderate Disagreement","Slight Agreement","Strong Agreement","Slight Agreement","Strong Disagreement","Strong Agreement","Slight Agreement","Very Strong Agreement","Moderate Disagreement","Neither Agreement nor Disagreement","Slight Disagreement","Very Strong Disagreement","Slight Agreement","Slight Disagreement","Strong Agreement","Slight Agreement","Moderate Disagreement"
"67","A3GVUYY3TWRPZT:3URFVVM166OOWH3T10RU3CRBFTJZUF","1",3,7,1,"50","<p style=""font-size:100px""><b>d</b></p><p style=""position: absolute; top: 30px; right: 30px; text-align:right; font-size:50px"""">N = 1</p>","d",0,73,624.79999999702,1,"agree",6,13,13,11,13,"42","female","Instructions were clear but I think I did poorly even though I was completely focused on this study and had no distractions. I just found it difficult recalling the letters, depending on the speed they were shown.","Moderate Disagreement","Moderate Disagreement","Slight Agreement","Strong Agreement","Slight Agreement","Strong Disagreement","Strong Agreement","Slight Agreement","Very Strong Agreement","Moderate Disagreement","Neither Agreement nor Disagreement","Slight Disagreement","Very Strong Disagreement","Slight Agreement","Slight Disagreement","Strong Agreement","Slight Agreement","Moderate Disagreement"
"68","A3GVUYY3TWRPZT:3URFVVM166OOWH3T10RU3CRBFTJZUF","1",3,8,1,"50","<p style=""font-size:100px""><b>v</b></p><p style=""position: absolute; top: 30px; right: 30px; text-align:right; font-size:50px"""">N = 1</p>","v",0,73,783.80000000447,1,"agree",6,13,13,11,13,"42","female","Instructions were clear but I think I did poorly even though I was completely focused on this study and had no distractions. I just found it difficult recalling the letters, depending on the speed they were shown.","Moderate Disagreement","Moderate Disagreement","Slight Agreement","Strong Agreement","Slight Agreement","Strong Disagreement","Strong Agreement","Slight Agreement","Very Strong Agreement","Moderate Disagreement","Neither Agreement nor Disagreement","Slight Disagreement","Very Strong Disagreement","Slight Agreement","Slight Disagreement","Strong Agreement","Slight Agreement","Moderate Disagreement"
"69","A3GVUYY3TWRPZT:3URFVVM166OOWH3T10RU3CRBFTJZUF","1",3,9,1,"50","<p style=""font-size:100px""><b>p</b></p><p style=""position: absolute; top: 30px; right: 30px; text-align:right; font-size:50px"""">N = 1</p>","p",0,73,717.79999999702,1,"agree",6,13,13,11,13,"42","female","Instructions were clear but I think I did poorly even though I was completely focused on this study and had no distractions. I just found it difficult recalling the letters, depending on the speed they were shown.","Moderate Disagreement","Moderate Disagreement","Slight Agreement","Strong Agreement","Slight Agreement","Strong Disagreement","Strong Agreement","Slight Agreement","Very Strong Agreement","Moderate Disagreement","Neither Agreement nor Disagreement","Slight Disagreement","Very Strong Disagreement","Slight Agreement","Slight Disagreement","Strong Agreement","Slight Agreement","Moderate Disagreement"
"70","A3GVUYY3TWRPZT:3URFVVM166OOWH3T10RU3CRBFTJZUF","1",3,10,1,"50","<p style=""font-size:100px""><b>p</b></p><p style=""position: absolute; top: 30px; right: 30px; text-align:right; font-size:50px"""">N = 1</p>","p",0,69,571.79999999702,0,"agree",6,13,13,11,13,"42","female","Instructions were clear but I think I did poorly even though I was completely focused on this study and had no distractions. I just found it difficult recalling the letters, depending on the speed they were shown.","Moderate Disagreement","Moderate Disagreement","Slight Agreement","Strong Agreement","Slight Agreement","Strong Disagreement","Strong Agreement","Slight Agreement","Very Strong Agreement","Moderate Disagreement","Neither Agreement nor Disagreement","Slight Disagreement","Very Strong Disagreement","Slight Agreement","Slight Disagreement","Strong Agreement","Slight Agreement","Moderate Disagreement"
"71","A3GVUYY3TWRPZT:3URFVVM166OOWH3T10RU3CRBFTJZUF","1",3,11,1,"50","<p style=""font-size:100px""><b>T</b></p><p style=""position: absolute; top: 30px; right: 30px; text-align:right; font-size:50px"""">N = 1</p>","T",0,73,622.5,1,"agree",6,13,13,11,13,"42","female","Instructions were clear but I think I did poorly even though I was completely focused on this study and had no distractions. I just found it difficult recalling the letters, depending on the speed they were shown.","Moderate Disagreement","Moderate Disagreement","Slight Agreement","Strong Agreement","Slight Agreement","Strong Disagreement","Strong Agreement","Slight Agreement","Very Strong Agreement","Moderate Disagreement","Neither Agreement nor Disagreement","Slight Disagreement","Very Strong Disagreement","Slight Agreement","Slight Disagreement","Strong Agreement","Slight Agreement","Moderate Disagreement"
"72","A3GVUYY3TWRPZT:3URFVVM166OOWH3T10RU3CRBFTJZUF","1",3,12,1,"50","<p style=""font-size:100px""><b>T</b></p><p style=""position: absolute; top: 30px; right: 30px; text-align:right; font-size:50px"""">N = 1</p>","T",0,69,427.89999999851,0,"agree",6,13,13,11,13,"42","female","Instructions were clear but I think I did poorly even though I was completely focused on this study and had no distractions. I just found it difficult recalling the letters, depending on the speed they were shown.","Moderate Disagreement","Moderate Disagreement","Slight Agreement","Strong Agreement","Slight Agreement","Strong Disagreement","Strong Agreement","Slight Agreement","Very Strong Agreement","Moderate Disagreement","Neither Agreement nor Disagreement","Slight Disagreement","Very Strong Disagreement","Slight Agreement","Slight Disagreement","Strong Agreement","Slight Agreement","Moderate Disagreement"
"73","A3GVUYY3TWRPZT:3URFVVM166OOWH3T10RU3CRBFTJZUF","1",4,1,3,"5","<p style=""font-size:100px""><b>p</b></p><p style=""position: absolute; top: 30px; right: 30px; text-align:right; font-size:50px"""">N = 3</p>","p",0,NA,NA,0,"agree",3,14,16,14,18,"42","female","Instructions were clear but I think I did poorly even though I was completely focused on this study and had no distractions. I just found it difficult recalling the letters, depending on the speed they were shown.","Moderate Disagreement","Moderate Disagreement","Slight Agreement","Strong Agreement","Slight Agreement","Strong Disagreement","Strong Agreement","Slight Agreement","Very Strong Agreement","Moderate Disagreement","Neither Agreement nor Disagreement","Slight Disagreement","Very Strong Disagreement","Slight Agreement","Slight Disagreement","Strong Agreement","Slight Agreement","Moderate Disagreement"
"74","A3GVUYY3TWRPZT:3URFVVM166OOWH3T10RU3CRBFTJZUF","1",4,2,3,"5","<p style=""font-size:100px""><b>g</b></p><p style=""position: absolute; top: 30px; right: 30px; text-align:right; font-size:50px"""">N = 3</p>","g",0,73,837.30000000447,1,"agree",3,14,16,14,18,"42","female","Instructions were clear but I think I did poorly even though I was completely focused on this study and had no distractions. I just found it difficult recalling the letters, depending on the speed they were shown.","Moderate Disagreement","Moderate Disagreement","Slight Agreement","Strong Agreement","Slight Agreement","Strong Disagreement","Strong Agreement","Slight Agreement","Very Strong Agreement","Moderate Disagreement","Neither Agreement nor Disagreement","Slight Disagreement","Very Strong Disagreement","Slight Agreement","Slight Disagreement","Strong Agreement","Slight Agreement","Moderate Disagreement"
"75","A3GVUYY3TWRPZT:3URFVVM166OOWH3T10RU3CRBFTJZUF","1",4,3,3,"5","<p style=""font-size:100px""><b>G</b></p><p style=""position: absolute; top: 30px; right: 30px; text-align:right; font-size:50px"""">N = 3</p>","G",0,73,814.19999999553,1,"agree",3,14,16,14,18,"42","female","Instructions were clear but I think I did poorly even though I was completely focused on this study and had no distractions. I just found it difficult recalling the letters, depending on the speed they were shown.","Moderate Disagreement","Moderate Disagreement","Slight Agreement","Strong Agreement","Slight Agreement","Strong Disagreement","Strong Agreement","Slight Agreement","Very Strong Agreement","Moderate Disagreement","Neither Agreement nor Disagreement","Slight Disagreement","Very Strong Disagreement","Slight Agreement","Slight Disagreement","Strong Agreement","Slight Agreement","Moderate Disagreement"
"76","A3GVUYY3TWRPZT:3URFVVM166OOWH3T10RU3CRBFTJZUF","1",4,4,3,"5","<p style=""font-size:100px""><b>V</b></p><p style=""position: absolute; top: 30px; right: 30px; text-align:right; font-size:50px"""">N = 3</p>","V",0,73,610.70000000298,1,"agree",3,14,16,14,18,"42","female","Instructions were clear but I think I did poorly even though I was completely focused on this study and had no distractions. I just found it difficult recalling the letters, depending on the speed they were shown.","Moderate Disagreement","Moderate Disagreement","Slight Agreement","Strong Agreement","Slight Agreement","Strong Disagreement","Strong Agreement","Slight Agreement","Very Strong Agreement","Moderate Disagreement","Neither Agreement nor Disagreement","Slight Disagreement","Very Strong Disagreement","Slight Agreement","Slight Disagreement","Strong Agreement","Slight Agreement","Moderate Disagreement"
"77","A3GVUYY3TWRPZT:3URFVVM166OOWH3T10RU3CRBFTJZUF","1",4,5,3,"5","<p style=""font-size:100px""><b>D</b></p><p style=""position: absolute; top: 30px; right: 30px; text-align:right; font-size:50px"""">N = 3</p>","D",0,73,493.79999999702,1,"agree",3,14,16,14,18,"42","female","Instructions were clear but I think I did poorly even though I was completely focused on this study and had no distractions. I just found it difficult recalling the letters, depending on the speed they were shown.","Moderate Disagreement","Moderate Disagreement","Slight Agreement","Strong Agreement","Slight Agreement","Strong Disagreement","Strong Agreement","Slight Agreement","Very Strong Agreement","Moderate Disagreement","Neither Agreement nor Disagreement","Slight Disagreement","Very Strong Disagreement","Slight Agreement","Slight Disagreement","Strong Agreement","Slight Agreement","Moderate Disagreement"
"78","A3GVUYY3TWRPZT:3URFVVM166OOWH3T10RU3CRBFTJZUF","1",4,6,3,"5","<p style=""font-size:100px""><b>G</b></p><p style=""position: absolute; top: 30px; right: 30px; text-align:right; font-size:50px"""">N = 3</p>","G",0,69,555,0,"agree",3,14,16,14,18,"42","female","Instructions were clear but I think I did poorly even though I was completely focused on this study and had no distractions. I just found it difficult recalling the letters, depending on the speed they were shown.","Moderate Disagreement","Moderate Disagreement","Slight Agreement","Strong Agreement","Slight Agreement","Strong Disagreement","Strong Agreement","Slight Agreement","Very Strong Agreement","Moderate Disagreement","Neither Agreement nor Disagreement","Slight Disagreement","Very Strong Disagreement","Slight Agreement","Slight Disagreement","Strong Agreement","Slight Agreement","Moderate Disagreement"
"79","A3GVUYY3TWRPZT:3URFVVM166OOWH3T10RU3CRBFTJZUF","1",4,7,3,"5","<p style=""font-size:100px""><b>V</b></p><p style=""position: absolute; top: 30px; right: 30px; text-align:right; font-size:50px"""">N = 3</p>","V",0,69,760.39999999851,0,"agree",3,14,16,14,18,"42","female","Instructions were clear but I think I did poorly even though I was completely focused on this study and had no distractions. I just found it difficult recalling the letters, depending on the speed they were shown.","Moderate Disagreement","Moderate Disagreement","Slight Agreement","Strong Agreement","Slight Agreement","Strong Disagreement","Strong Agreement","Slight Agreement","Very Strong Agreement","Moderate Disagreement","Neither Agreement nor Disagreement","Slight Disagreement","Very Strong Disagreement","Slight Agreement","Slight Disagreement","Strong Agreement","Slight Agreement","Moderate Disagreement"
"80","A3GVUYY3TWRPZT:3URFVVM166OOWH3T10RU3CRBFTJZUF","1",4,8,3,"5","<p style=""font-size:100px""><b>D</b></p><p style=""position: absolute; top: 30px; right: 30px; text-align:right; font-size:50px"""">N = 3</p>","D",0,69,805.69999999553,0,"agree",3,14,16,14,18,"42","female","Instructions were clear but I think I did poorly even though I was completely focused on this study and had no distractions. I just found it difficult recalling the letters, depending on the speed they were shown.","Moderate Disagreement","Moderate Disagreement","Slight Agreement","Strong Agreement","Slight Agreement","Strong Disagreement","Strong Agreement","Slight Agreement","Very Strong Agreement","Moderate Disagreement","Neither Agreement nor Disagreement","Slight Disagreement","Very Strong Disagreement","Slight Agreement","Slight Disagreement","Strong Agreement","Slight Agreement","Moderate Disagreement"
"81","A3GVUYY3TWRPZT:3URFVVM166OOWH3T10RU3CRBFTJZUF","1",4,9,3,"5","<p style=""font-size:100px""><b>G</b></p><p style=""position: absolute; top: 30px; right: 30px; text-align:right; font-size:50px"""">N = 3</p>","G",0,69,928.10000000149,0,"agree",3,14,16,14,18,"42","female","Instructions were clear but I think I did poorly even though I was completely focused on this study and had no distractions. I just found it difficult recalling the letters, depending on the speed they were shown.","Moderate Disagreement","Moderate Disagreement","Slight Agreement","Strong Agreement","Slight Agreement","Strong Disagreement","Strong Agreement","Slight Agreement","Very Strong Agreement","Moderate Disagreement","Neither Agreement nor Disagreement","Slight Disagreement","Very Strong Disagreement","Slight Agreement","Slight Disagreement","Strong Agreement","Slight Agreement","Moderate Disagreement"
"82","A3GVUYY3TWRPZT:3URFVVM166OOWH3T10RU3CRBFTJZUF","1",4,10,3,"5","<p style=""font-size:100px""><b>D</b></p><p style=""position: absolute; top: 30px; right: 30px; text-align:right; font-size:50px"""">N = 3</p>","D",0,73,888.70000000298,1,"agree",3,14,16,14,18,"42","female","Instructions were clear but I think I did poorly even though I was completely focused on this study and had no distractions. I just found it difficult recalling the letters, depending on the speed they were shown.","Moderate Disagreement","Moderate Disagreement","Slight Agreement","Strong Agreement","Slight Agreement","Strong Disagreement","Strong Agreement","Slight Agreement","Very Strong Agreement","Moderate Disagreement","Neither Agreement nor Disagreement","Slight Disagreement","Very Strong Disagreement","Slight Agreement","Slight Disagreement","Strong Agreement","Slight Agreement","Moderate Disagreement"
"83","A3GVUYY3TWRPZT:3URFVVM166OOWH3T10RU3CRBFTJZUF","1",4,11,3,"5","<p style=""font-size:100px""><b>g</b></p><p style=""position: absolute; top: 30px; right: 30px; text-align:right; font-size:50px"""">N = 3</p>","g",0,69,757.39999999851,0,"agree",3,14,16,14,18,"42","female","Instructions were clear but I think I did poorly even though I was completely focused on this study and had no distractions. I just found it difficult recalling the letters, depending on the speed they were shown.","Moderate Disagreement","Moderate Disagreement","Slight Agreement","Strong Agreement","Slight Agreement","Strong Disagreement","Strong Agreement","Slight Agreement","Very Strong Agreement","Moderate Disagreement","Neither Agreement nor Disagreement","Slight Disagreement","Very Strong Disagreement","Slight Agreement","Slight Disagreement","Strong Agreement","Slight Agreement","Moderate Disagreement"
"84","A3GVUYY3TWRPZT:3URFVVM166OOWH3T10RU3CRBFTJZUF","1",4,12,3,"5","<p style=""font-size:100px""><b>T</b></p><p style=""position: absolute; top: 30px; right: 30px; text-align:right; font-size:50px"""">N = 3</p>","T",0,73,918.19999999553,1,"agree",3,14,16,14,18,"42","female","Instructions were clear but I think I did poorly even though I was completely focused on this study and had no distractions. I just found it difficult recalling the letters, depending on the speed they were shown.","Moderate Disagreement","Moderate Disagreement","Slight Agreement","Strong Agreement","Slight Agreement","Strong Disagreement","Strong Agreement","Slight Agreement","Very Strong Agreement","Moderate Disagreement","Neither Agreement nor Disagreement","Slight Disagreement","Very Strong Disagreement","Slight Agreement","Slight Disagreement","Strong Agreement","Slight Agreement","Moderate Disagreement"
"85","A3GVUYY3TWRPZT:3URFVVM166OOWH3T10RU3CRBFTJZUF","1",5,1,1,"5","<p style=""font-size:100px""><b>p</b></p><p style=""position: absolute; top: 30px; right: 30px; text-align:right; font-size:50px"""">N = 1</p>","p",0,73,949.69999999553,1,"agree",7,14,10,6,14,"42","female","Instructions were clear but I think I did poorly even though I was completely focused on this study and had no distractions. I just found it difficult recalling the letters, depending on the speed they were shown.","Moderate Disagreement","Moderate Disagreement","Slight Agreement","Strong Agreement","Slight Agreement","Strong Disagreement","Strong Agreement","Slight Agreement","Very Strong Agreement","Moderate Disagreement","Neither Agreement nor Disagreement","Slight Disagreement","Very Strong Disagreement","Slight Agreement","Slight Disagreement","Strong Agreement","Slight Agreement","Moderate Disagreement"
"86","A3GVUYY3TWRPZT:3URFVVM166OOWH3T10RU3CRBFTJZUF","1",5,2,1,"5","<p style=""font-size:100px""><b>p</b></p><p style=""position: absolute; top: 30px; right: 30px; text-align:right; font-size:50px"""">N = 1</p>","p",0,69,604.69999999553,0,"agree",7,14,10,6,14,"42","female","Instructions were clear but I think I did poorly even though I was completely focused on this study and had no distractions. I just found it difficult recalling the letters, depending on the speed they were shown.","Moderate Disagreement","Moderate Disagreement","Slight Agreement","Strong Agreement","Slight Agreement","Strong Disagreement","Strong Agreement","Slight Agreement","Very Strong Agreement","Moderate Disagreement","Neither Agreement nor Disagreement","Slight Disagreement","Very Strong Disagreement","Slight Agreement","Slight Disagreement","Strong Agreement","Slight Agreement","Moderate Disagreement"
"87","A3GVUYY3TWRPZT:3URFVVM166OOWH3T10RU3CRBFTJZUF","1",5,3,1,"5","<p style=""font-size:100px""><b>T</b></p><p style=""position: absolute; top: 30px; right: 30px; text-align:right; font-size:50px"""">N = 1</p>","T",0,73,863.79999999702,1,"agree",7,14,10,6,14,"42","female","Instructions were clear but I think I did poorly even though I was completely focused on this study and had no distractions. I just found it difficult recalling the letters, depending on the speed they were shown.","Moderate Disagreement","Moderate Disagreement","Slight Agreement","Strong Agreement","Slight Agreement","Strong Disagreement","Strong Agreement","Slight Agreement","Very Strong Agreement","Moderate Disagreement","Neither Agreement nor Disagreement","Slight Disagreement","Very Strong Disagreement","Slight Agreement","Slight Disagreement","Strong Agreement","Slight Agreement","Moderate Disagreement"
"88","A3GVUYY3TWRPZT:3URFVVM166OOWH3T10RU3CRBFTJZUF","1",5,4,1,"5","<p style=""font-size:100px""><b>V</b></p><p style=""position: absolute; top: 30px; right: 30px; text-align:right; font-size:50px"""">N = 1</p>","V",0,73,682.39999999851,1,"agree",7,14,10,6,14,"42","female","Instructions were clear but I think I did poorly even though I was completely focused on this study and had no distractions. I just found it difficult recalling the letters, depending on the speed they were shown.","Moderate Disagreement","Moderate Disagreement","Slight Agreement","Strong Agreement","Slight Agreement","Strong Disagreement","Strong Agreement","Slight Agreement","Very Strong Agreement","Moderate Disagreement","Neither Agreement nor Disagreement","Slight Disagreement","Very Strong Disagreement","Slight Agreement","Slight Disagreement","Strong Agreement","Slight Agreement","Moderate Disagreement"
"89","A3GVUYY3TWRPZT:3URFVVM166OOWH3T10RU3CRBFTJZUF","1",5,5,1,"5","<p style=""font-size:100px""><b>b</b></p><p style=""position: absolute; top: 30px; right: 30px; text-align:right; font-size:50px"""">N = 1</p>","b",0,73,578.30000000447,1,"agree",7,14,10,6,14,"42","female","Instructions were clear but I think I did poorly even though I was completely focused on this study and had no distractions. I just found it difficult recalling the letters, depending on the speed they were shown.","Moderate Disagreement","Moderate Disagreement","Slight Agreement","Strong Agreement","Slight Agreement","Strong Disagreement","Strong Agreement","Slight Agreement","Very Strong Agreement","Moderate Disagreement","Neither Agreement nor Disagreement","Slight Disagreement","Very Strong Disagreement","Slight Agreement","Slight Disagreement","Strong Agreement","Slight Agreement","Moderate Disagreement"
"90","A3GVUYY3TWRPZT:3URFVVM166OOWH3T10RU3CRBFTJZUF","1",5,6,1,"5","<p style=""font-size:100px""><b>g</b></p><p style=""position: absolute; top: 30px; right: 30px; text-align:right; font-size:50px"""">N = 1</p>","g",0,73,563.60000000149,1,"agree",7,14,10,6,14,"42","female","Instructions were clear but I think I did poorly even though I was completely focused on this study and had no distractions. I just found it difficult recalling the letters, depending on the speed they were shown.","Moderate Disagreement","Moderate Disagreement","Slight Agreement","Strong Agreement","Slight Agreement","Strong Disagreement","Strong Agreement","Slight Agreement","Very Strong Agreement","Moderate Disagreement","Neither Agreement nor Disagreement","Slight Disagreement","Very Strong Disagreement","Slight Agreement","Slight Disagreement","Strong Agreement","Slight Agreement","Moderate Disagreement"
"91","A3GVUYY3TWRPZT:3URFVVM166OOWH3T10RU3CRBFTJZUF","1",5,7,1,"5","<p style=""font-size:100px""><b>V</b></p><p style=""position: absolute; top: 30px; right: 30px; text-align:right; font-size:50px"""">N = 1</p>","V",0,73,824.10000000149,1,"agree",7,14,10,6,14,"42","female","Instructions were clear but I think I did poorly even though I was completely focused on this study and had no distractions. I just found it difficult recalling the letters, depending on the speed they were shown.","Moderate Disagreement","Moderate Disagreement","Slight Agreement","Strong Agreement","Slight Agreement","Strong Disagreement","Strong Agreement","Slight Agreement","Very Strong Agreement","Moderate Disagreement","Neither Agreement nor Disagreement","Slight Disagreement","Very Strong Disagreement","Slight Agreement","Slight Disagreement","Strong Agreement","Slight Agreement","Moderate Disagreement"
"92","A3GVUYY3TWRPZT:3URFVVM166OOWH3T10RU3CRBFTJZUF","1",5,8,1,"5","<p style=""font-size:100px""><b>V</b></p><p style=""position: absolute; top: 30px; right: 30px; text-align:right; font-size:50px"""">N = 1</p>","V",0,69,717.29999999702,0,"agree",7,14,10,6,14,"42","female","Instructions were clear but I think I did poorly even though I was completely focused on this study and had no distractions. I just found it difficult recalling the letters, depending on the speed they were shown.","Moderate Disagreement","Moderate Disagreement","Slight Agreement","Strong Agreement","Slight Agreement","Strong Disagreement","Strong Agreement","Slight Agreement","Very Strong Agreement","Moderate Disagreement","Neither Agreement nor Disagreement","Slight Disagreement","Very Strong Disagreement","Slight Agreement","Slight Disagreement","Strong Agreement","Slight Agreement","Moderate Disagreement"
"93","A3GVUYY3TWRPZT:3URFVVM166OOWH3T10RU3CRBFTJZUF","1",5,9,1,"5","<p style=""font-size:100px""><b>V</b></p><p style=""position: absolute; top: 30px; right: 30px; text-align:right; font-size:50px"""">N = 1</p>","V",0,69,673.79999999702,0,"agree",7,14,10,6,14,"42","female","Instructions were clear but I think I did poorly even though I was completely focused on this study and had no distractions. I just found it difficult recalling the letters, depending on the speed they were shown.","Moderate Disagreement","Moderate Disagreement","Slight Agreement","Strong Agreement","Slight Agreement","Strong Disagreement","Strong Agreement","Slight Agreement","Very Strong Agreement","Moderate Disagreement","Neither Agreement nor Disagreement","Slight Disagreement","Very Strong Disagreement","Slight Agreement","Slight Disagreement","Strong Agreement","Slight Agreement","Moderate Disagreement"
"94","A3GVUYY3TWRPZT:3URFVVM166OOWH3T10RU3CRBFTJZUF","1",5,10,1,"5","<p style=""font-size:100px""><b>p</b></p><p style=""position: absolute; top: 30px; right: 30px; text-align:right; font-size:50px"""">N = 1</p>","p",0,73,885.29999999702,1,"agree",7,14,10,6,14,"42","female","Instructions were clear but I think I did poorly even though I was completely focused on this study and had no distractions. I just found it difficult recalling the letters, depending on the speed they were shown.","Moderate Disagreement","Moderate Disagreement","Slight Agreement","Strong Agreement","Slight Agreement","Strong Disagreement","Strong Agreement","Slight Agreement","Very Strong Agreement","Moderate Disagreement","Neither Agreement nor Disagreement","Slight Disagreement","Very Strong Disagreement","Slight Agreement","Slight Disagreement","Strong Agreement","Slight Agreement","Moderate Disagreement"
"95","A3GVUYY3TWRPZT:3URFVVM166OOWH3T10RU3CRBFTJZUF","1",5,11,1,"5","<p style=""font-size:100px""><b>p</b></p><p style=""position: absolute; top: 30px; right: 30px; text-align:right; font-size:50px"""">N = 1</p>","p",0,69,532.20000000298,0,"agree",7,14,10,6,14,"42","female","Instructions were clear but I think I did poorly even though I was completely focused on this study and had no distractions. I just found it difficult recalling the letters, depending on the speed they were shown.","Moderate Disagreement","Moderate Disagreement","Slight Agreement","Strong Agreement","Slight Agreement","Strong Disagreement","Strong Agreement","Slight Agreement","Very Strong Agreement","Moderate Disagreement","Neither Agreement nor Disagreement","Slight Disagreement","Very Strong Disagreement","Slight Agreement","Slight Disagreement","Strong Agreement","Slight Agreement","Moderate Disagreement"
"96","A3GVUYY3TWRPZT:3URFVVM166OOWH3T10RU3CRBFTJZUF","1",5,12,1,"5","<p style=""font-size:100px""><b>T</b></p><p style=""position: absolute; top: 30px; right: 30px; text-align:right; font-size:50px"""">N = 1</p>","T",0,73,736.69999999553,1,"agree",7,14,10,6,14,"42","female","Instructions were clear but I think I did poorly even though I was completely focused on this study and had no distractions. I just found it difficult recalling the letters, depending on the speed they were shown.","Moderate Disagreement","Moderate Disagreement","Slight Agreement","Strong Agreement","Slight Agreement","Strong Disagreement","Strong Agreement","Slight Agreement","Very Strong Agreement","Moderate Disagreement","Neither Agreement nor Disagreement","Slight Disagreement","Very Strong Disagreement","Slight Agreement","Slight Disagreement","Strong Agreement","Slight Agreement","Moderate Disagreement"
"97","A3GVUYY3TWRPZT:3URFVVM166OOWH3T10RU3CRBFTJZUF","1",6,1,1,"50","<p style=""font-size:100px""><b>d</b></p><p style=""position: absolute; top: 30px; right: 30px; text-align:right; font-size:50px"""">N = 1</p>","d",0,NA,NA,0,"agree",3,11,15,12,17,"42","female","Instructions were clear but I think I did poorly even though I was completely focused on this study and had no distractions. I just found it difficult recalling the letters, depending on the speed they were shown.","Moderate Disagreement","Moderate Disagreement","Slight Agreement","Strong Agreement","Slight Agreement","Strong Disagreement","Strong Agreement","Slight Agreement","Very Strong Agreement","Moderate Disagreement","Neither Agreement nor Disagreement","Slight Disagreement","Very Strong Disagreement","Slight Agreement","Slight Disagreement","Strong Agreement","Slight Agreement","Moderate Disagreement"
"98","A3GVUYY3TWRPZT:3URFVVM166OOWH3T10RU3CRBFTJZUF","1",6,2,1,"50","<p style=""font-size:100px""><b>d</b></p><p style=""position: absolute; top: 30px; right: 30px; text-align:right; font-size:50px"""">N = 1</p>","d",0,69,782.69999999553,0,"agree",3,11,15,12,17,"42","female","Instructions were clear but I think I did poorly even though I was completely focused on this study and had no distractions. I just found it difficult recalling the letters, depending on the speed they were shown.","Moderate Disagreement","Moderate Disagreement","Slight Agreement","Strong Agreement","Slight Agreement","Strong Disagreement","Strong Agreement","Slight Agreement","Very Strong Agreement","Moderate Disagreement","Neither Agreement nor Disagreement","Slight Disagreement","Very Strong Disagreement","Slight Agreement","Slight Disagreement","Strong Agreement","Slight Agreement","Moderate Disagreement"
"99","A3GVUYY3TWRPZT:3URFVVM166OOWH3T10RU3CRBFTJZUF","1",6,3,1,"50","<p style=""font-size:100px""><b>B</b></p><p style=""position: absolute; top: 30px; right: 30px; text-align:right; font-size:50px"""">N = 1</p>","B",0,73,710.70000000298,1,"agree",3,11,15,12,17,"42","female","Instructions were clear but I think I did poorly even though I was completely focused on this study and had no distractions. I just found it difficult recalling the letters, depending on the speed they were shown.","Moderate Disagreement","Moderate Disagreement","Slight Agreement","Strong Agreement","Slight Agreement","Strong Disagreement","Strong Agreement","Slight Agreement","Very Strong Agreement","Moderate Disagreement","Neither Agreement nor Disagreement","Slight Disagreement","Very Strong Disagreement","Slight Agreement","Slight Disagreement","Strong Agreement","Slight Agreement","Moderate Disagreement"
"100","A3GVUYY3TWRPZT:3URFVVM166OOWH3T10RU3CRBFTJZUF","1",6,4,1,"50","<p style=""font-size:100px""><b>g</b></p><p style=""position: absolute; top: 30px; right: 30px; text-align:right; font-size:50px"""">N = 1</p>","g",0,73,808.30000000447,1,"agree",3,11,15,12,17,"42","female","Instructions were clear but I think I did poorly even though I was completely focused on this study and had no distractions. I just found it difficult recalling the letters, depending on the speed they were shown.","Moderate Disagreement","Moderate Disagreement","Slight Agreement","Strong Agreement","Slight Agreement","Strong Disagreement","Strong Agreement","Slight Agreement","Very Strong Agreement","Moderate Disagreement","Neither Agreement nor Disagreement","Slight Disagreement","Very Strong Disagreement","Slight Agreement","Slight Disagreement","Strong Agreement","Slight Agreement","Moderate Disagreement"
"101","A3GVUYY3TWRPZT:3URFVVM166OOWH3T10RU3CRBFTJZUF","1",6,5,1,"50","<p style=""font-size:100px""><b>T</b></p><p style=""position: absolute; top: 30px; right: 30px; text-align:right; font-size:50px"""">N = 1</p>","T",0,73,625.89999999851,1,"agree",3,11,15,12,17,"42","female","Instructions were clear but I think I did poorly even though I was completely focused on this study and had no distractions. I just found it difficult recalling the letters, depending on the speed they were shown.","Moderate Disagreement","Moderate Disagreement","Slight Agreement","Strong Agreement","Slight Agreement","Strong Disagreement","Strong Agreement","Slight Agreement","Very Strong Agreement","Moderate Disagreement","Neither Agreement nor Disagreement","Slight Disagreement","Very Strong Disagreement","Slight Agreement","Slight Disagreement","Strong Agreement","Slight Agreement","Moderate Disagreement"
"102","A3GVUYY3TWRPZT:3URFVVM166OOWH3T10RU3CRBFTJZUF","1",6,6,1,"50","<p style=""font-size:100px""><b>D</b></p><p style=""position: absolute; top: 30px; right: 30px; text-align:right; font-size:50px"""">N = 1</p>","D",0,73,971,1,"agree",3,11,15,12,17,"42","female","Instructions were clear but I think I did poorly even though I was completely focused on this study and had no distractions. I just found it difficult recalling the letters, depending on the speed they were shown.","Moderate Disagreement","Moderate Disagreement","Slight Agreement","Strong Agreement","Slight Agreement","Strong Disagreement","Strong Agreement","Slight Agreement","Very Strong Agreement","Moderate Disagreement","Neither Agreement nor Disagreement","Slight Disagreement","Very Strong Disagreement","Slight Agreement","Slight Disagreement","Strong Agreement","Slight Agreement","Moderate Disagreement"
"103","A3GVUYY3TWRPZT:3URFVVM166OOWH3T10RU3CRBFTJZUF","1",6,7,1,"50","<p style=""font-size:100px""><b>D</b></p><p style=""position: absolute; top: 30px; right: 30px; text-align:right; font-size:50px"""">N = 1</p>","D",0,69,613.19999999553,0,"agree",3,11,15,12,17,"42","female","Instructions were clear but I think I did poorly even though I was completely focused on this study and had no distractions. I just found it difficult recalling the letters, depending on the speed they were shown.","Moderate Disagreement","Moderate Disagreement","Slight Agreement","Strong Agreement","Slight Agreement","Strong Disagreement","Strong Agreement","Slight Agreement","Very Strong Agreement","Moderate Disagreement","Neither Agreement nor Disagreement","Slight Disagreement","Very Strong Disagreement","Slight Agreement","Slight Disagreement","Strong Agreement","Slight Agreement","Moderate Disagreement"
"104","A3GVUYY3TWRPZT:3URFVVM166OOWH3T10RU3CRBFTJZUF","1",6,8,1,"50","<p style=""font-size:100px""><b>D</b></p><p style=""position: absolute; top: 30px; right: 30px; text-align:right; font-size:50px"""">N = 1</p>","D",0,69,473.60000000149,0,"agree",3,11,15,12,17,"42","female","Instructions were clear but I think I did poorly even though I was completely focused on this study and had no distractions. I just found it difficult recalling the letters, depending on the speed they were shown.","Moderate Disagreement","Moderate Disagreement","Slight Agreement","Strong Agreement","Slight Agreement","Strong Disagreement","Strong Agreement","Slight Agreement","Very Strong Agreement","Moderate Disagreement","Neither Agreement nor Disagreement","Slight Disagreement","Very Strong Disagreement","Slight Agreement","Slight Disagreement","Strong Agreement","Slight Agreement","Moderate Disagreement"
"105","A3GVUYY3TWRPZT:3URFVVM166OOWH3T10RU3CRBFTJZUF","1",6,9,1,"50","<p style=""font-size:100px""><b>v</b></p><p style=""position: absolute; top: 30px; right: 30px; text-align:right; font-size:50px"""">N = 1</p>","v",0,73,535.29999999702,1,"agree",3,11,15,12,17,"42","female","Instructions were clear but I think I did poorly even though I was completely focused on this study and had no distractions. I just found it difficult recalling the letters, depending on the speed they were shown.","Moderate Disagreement","Moderate Disagreement","Slight Agreement","Strong Agreement","Slight Agreement","Strong Disagreement","Strong Agreement","Slight Agreement","Very Strong Agreement","Moderate Disagreement","Neither Agreement nor Disagreement","Slight Disagreement","Very Strong Disagreement","Slight Agreement","Slight Disagreement","Strong Agreement","Slight Agreement","Moderate Disagreement"
"106","A3GVUYY3TWRPZT:3URFVVM166OOWH3T10RU3CRBFTJZUF","1",6,10,1,"50","<p style=""font-size:100px""><b>v</b></p><p style=""position: absolute; top: 30px; right: 30px; text-align:right; font-size:50px"""">N = 1</p>","v",0,69,485.29999999702,0,"agree",3,11,15,12,17,"42","female","Instructions were clear but I think I did poorly even though I was completely focused on this study and had no distractions. I just found it difficult recalling the letters, depending on the speed they were shown.","Moderate Disagreement","Moderate Disagreement","Slight Agreement","Strong Agreement","Slight Agreement","Strong Disagreement","Strong Agreement","Slight Agreement","Very Strong Agreement","Moderate Disagreement","Neither Agreement nor Disagreement","Slight Disagreement","Very Strong Disagreement","Slight Agreement","Slight Disagreement","Strong Agreement","Slight Agreement","Moderate Disagreement"
"107","A3GVUYY3TWRPZT:3URFVVM166OOWH3T10RU3CRBFTJZUF","1",6,11,1,"50","<p style=""font-size:100px""><b>t</b></p><p style=""position: absolute; top: 30px; right: 30px; text-align:right; font-size:50px"""">N = 1</p>","t",0,73,582.10000000149,1,"agree",3,11,15,12,17,"42","female","Instructions were clear but I think I did poorly even though I was completely focused on this study and had no distractions. I just found it difficult recalling the letters, depending on the speed they were shown.","Moderate Disagreement","Moderate Disagreement","Slight Agreement","Strong Agreement","Slight Agreement","Strong Disagreement","Strong Agreement","Slight Agreement","Very Strong Agreement","Moderate Disagreement","Neither Agreement nor Disagreement","Slight Disagreement","Very Strong Disagreement","Slight Agreement","Slight Disagreement","Strong Agreement","Slight Agreement","Moderate Disagreement"
"108","A3GVUYY3TWRPZT:3URFVVM166OOWH3T10RU3CRBFTJZUF","1",6,12,1,"50","<p style=""font-size:100px""><b>G</b></p><p style=""position: absolute; top: 30px; right: 30px; text-align:right; font-size:50px"""">N = 1</p>","G",0,73,614,1,"agree",3,11,15,12,17,"42","female","Instructions were clear but I think I did poorly even though I was completely focused on this study and had no distractions. I just found it difficult recalling the letters, depending on the speed they were shown.","Moderate Disagreement","Moderate Disagreement","Slight Agreement","Strong Agreement","Slight Agreement","Strong Disagreement","Strong Agreement","Slight Agreement","Very Strong Agreement","Moderate Disagreement","Neither Agreement nor Disagreement","Slight Disagreement","Very Strong Disagreement","Slight Agreement","Slight Disagreement","Strong Agreement","Slight Agreement","Moderate Disagreement"
"109","A3GVUYY3TWRPZT:3URFVVM166OOWH3T10RU3CRBFTJZUF","2",7,1,2,"5","<p style=""font-size:100px""><b>p</b></p><p style=""position: absolute; top: 30px; right: 30px; text-align:right; font-size:50px"""">N = 2</p>","p",0,NA,NA,0,"agree",13,9,14,10,15,"42","female","Instructions were clear but I think I did poorly even though I was completely focused on this study and had no distractions. I just found it difficult recalling the letters, depending on the speed they were shown.","Moderate Disagreement","Moderate Disagreement","Slight Agreement","Strong Agreement","Slight Agreement","Strong Disagreement","Strong Agreement","Slight Agreement","Very Strong Agreement","Moderate Disagreement","Neither Agreement nor Disagreement","Slight Disagreement","Very Strong Disagreement","Slight Agreement","Slight Disagreement","Strong Agreement","Slight Agreement","Moderate Disagreement"
"110","A3GVUYY3TWRPZT:3URFVVM166OOWH3T10RU3CRBFTJZUF","2",7,2,2,"5","<p style=""font-size:100px""><b>T</b></p><p style=""position: absolute; top: 30px; right: 30px; text-align:right; font-size:50px"""">N = 2</p>","T",0,73,394.89999999851,1,"agree",13,9,14,10,15,"42","female","Instructions were clear but I think I did poorly even though I was completely focused on this study and had no distractions. I just found it difficult recalling the letters, depending on the speed they were shown.","Moderate Disagreement","Moderate Disagreement","Slight Agreement","Strong Agreement","Slight Agreement","Strong Disagreement","Strong Agreement","Slight Agreement","Very Strong Agreement","Moderate Disagreement","Neither Agreement nor Disagreement","Slight Disagreement","Very Strong Disagreement","Slight Agreement","Slight Disagreement","Strong Agreement","Slight Agreement","Moderate Disagreement"
"111","A3GVUYY3TWRPZT:3URFVVM166OOWH3T10RU3CRBFTJZUF","2",7,3,2,"5","<p style=""font-size:100px""><b>p</b></p><p style=""position: absolute; top: 30px; right: 30px; text-align:right; font-size:50px"""">N = 2</p>","p",0,69,517.79999999702,0,"agree",13,9,14,10,15,"42","female","Instructions were clear but I think I did poorly even though I was completely focused on this study and had no distractions. I just found it difficult recalling the letters, depending on the speed they were shown.","Moderate Disagreement","Moderate Disagreement","Slight Agreement","Strong Agreement","Slight Agreement","Strong Disagreement","Strong Agreement","Slight Agreement","Very Strong Agreement","Moderate Disagreement","Neither Agreement nor Disagreement","Slight Disagreement","Very Strong Disagreement","Slight Agreement","Slight Disagreement","Strong Agreement","Slight Agreement","Moderate Disagreement"
