"","subject","run","block","trial","N","reward","stimulus","cue","isTarget","key_press","rt","acc","debrief","performance","frustration","demand","temporal","effort","age","gender","comments","nfc1","nfc2","nfc3","nfc4","nfc5","nfc6","nfc7","nfc8","nfc9","nfc10","nfc11","nfc12","nfc13","nfc14","nfc15","nfc16","nfc17","nfc18"
"1","A153F5VZEWLJ6K:31QNSG6A5SZ7EAQAF2Y6G0GN89U87W","practice",1,1,1,"NA","<p style=""font-size:100px""><b>G</b></p><p style=""position: absolute; top: 30px; right: 30px; text-align:right; font-size:50px"""">N = 1</p>","G",0,73,5092.09999996424,1,"agree",19,18,18,17,16,"52","male","good","Very Strong Agreement","Strong Agreement","Strong Agreement","Very Strong Agreement","Strong Agreement","Very Strong Agreement","Strong Agreement","Strong Agreement","Very Strong Agreement","Strong Agreement","Strong Agreement","Strong Agreement","Very Strong Agreement","Strong Agreement","Strong Agreement","Strong Agreement","Strong Agreement","Strong Agreement"
"2","A153F5VZEWLJ6K:31QNSG6A5SZ7EAQAF2Y6G0GN89U87W","practice",1,2,1,"NA","<p style=""font-size:100px""><b>T</b></p><p style=""position: absolute; top: 30px; right: 30px; text-align:right; font-size:50px"""">N = 1</p>","T",0,73,1707.30000001192,1,"agree",19,18,18,17,16,"52","male","good","Very Strong Agreement","Strong Agreement","Strong Agreement","Very Strong Agreement","Strong Agreement","Very Strong Agreement","Strong Agreement","Strong Agreement","Very Strong Agreement","Strong Agreement","Strong Agreement","Strong Agreement","Very Strong Agreement","Strong Agreement","Strong Agreement","Strong Agreement","Strong Agreement","Strong Agreement"
"3","A153F5VZEWLJ6K:31QNSG6A5SZ7EAQAF2Y6G0GN89U87W","practice",1,3,1,"NA","<p style=""font-size:100px""><b>G</b></p><p style=""position: absolute; top: 30px; right: 30px; text-align:right; font-size:50px"""">N = 1</p>","G",0,73,1510.69999998808,1,"agree",19,18,18,17,16,"52","male","good","Very Strong Agreement","Strong Agreement","Strong Agreement","Very Strong Agreement","Strong Agreement","Very Strong Agreement","Strong Agreement","Strong Agreement","Very Strong Agreement","Strong Agreement","Strong Agreement","Strong Agreement","Very Strong Agreement","Strong Agreement","Strong Agreement","Strong Agreement","Strong Agreement","Strong Agreement"
"4","A153F5VZEWLJ6K:31QNSG6A5SZ7EAQAF2Y6G0GN89U87W","practice",1,4,1,"NA","<p style=""font-size:100px""><b>G</b></p><p style=""position: absolute; top: 30px; right: 30px; text-align:right; font-size:50px"""">N = 1</p>","G",1,73,1475.69999998808,0,"agree",19,18,18,17,16,"52","male","good","Very Strong Agreement","Strong Agreement","Strong Agreement","Very Strong Agreement","Strong Agreement","Very Strong Agreement","Strong Agreement","Strong Agreement","Very Strong Agreement","Strong Agreement","Strong Agreement","Strong Agreement","Very Strong Agreement","Strong Agreement","Strong Agreement","Strong Agreement","Strong Agreement","Strong Agreement"
"5","A153F5VZEWLJ6K:31QNSG6A5SZ7EAQAF2Y6G0GN89U87W","practice",1,5,1,"NA","<p style=""font-size:100px""><b>V</b></p><p style=""position: absolute; top: 30px; right: 30px; text-align:right; font-size:50px"""">N = 1</p>","V",0,73,1965.60000002384,1,"agree",19,18,18,17,16,"52","male","good","Very Strong Agreement","Strong Agreement","Strong Agreement","Very Strong Agreement","Strong Agreement","Very Strong Agreement","Strong Agreement","Strong Agreement","Very Strong Agreement","Strong Agreement","Strong Agreement","Strong Agreement","Very Strong Agreement","Strong Agreement","Strong Agreement","Strong Agreement","Strong Agreement","Strong Agreement"
"6","A153F5VZEWLJ6K:31QNSG6A5SZ7EAQAF2Y6G0GN89U87W","practice",1,6,1,"NA","<p style=""font-size:100px""><b>V</b></p><p style=""position: absolute; top: 30px; right: 30px; text-align:right; font-size:50px"""">N = 1</p>","V",1,73,3555,0,"agree",19,18,18,17,16,"52","male","good","Very Strong Agreement","Strong Agreement","Strong Agreement","Very Strong Agreement","Strong Agreement","Very Strong Agreement","Strong Agreement","Strong Agreement","Very Strong Agreement","Strong Agreement","Strong Agreement","Strong Agreement","Very Strong Agreement","Strong Agreement","Strong Agreement","Strong Agreement","Strong Agreement","Strong Agreement"
"7","A153F5VZEWLJ6K:31QNSG6A5SZ7EAQAF2Y6G0GN89U87W","practice",1,7,1,"NA","<p style=""font-size:100px""><b>d</b></p><p style=""position: absolute; top: 30px; right: 30px; text-align:right; font-size:50px"""">N = 1</p>","d",0,73,3416.70000004768,1,"agree",19,18,18,17,16,"52","male","good","Very Strong Agreement","Strong Agreement","Strong Agreement","Very Strong Agreement","Strong Agreement","Very Strong Agreement","Strong Agreement","Strong Agreement","Very Strong Agreement","Strong Agreement","Strong Agreement","Strong Agreement","Very Strong Agreement","Strong Agreement","Strong Agreement","Strong Agreement","Strong Agreement","Strong Agreement"
"8","A153F5VZEWLJ6K:31QNSG6A5SZ7EAQAF2Y6G0GN89U87W","practice",1,8,1,"NA","<p style=""font-size:100px""><b>d</b></p><p style=""position: absolute; top: 30px; right: 30px; text-align:right; font-size:50px"""">N = 1</p>","d",1,73,2724.80000001192,0,"agree",19,18,18,17,16,"52","male","good","Very Strong Agreement","Strong Agreement","Strong Agreement","Very Strong Agreement","Strong Agreement","Very Strong Agreement","Strong Agreement","Strong Agreement","Very Strong Agreement","Strong Agreement","Strong Agreement","Strong Agreement","Very Strong Agreement","Strong Agreement","Strong Agreement","Strong Agreement","Strong Agreement","Strong Agreement"
"9","A153F5VZEWLJ6K:31QNSG6A5SZ7EAQAF2Y6G0GN89U87W","practice",1,9,1,"NA","<p style=""font-size:100px""><b>d</b></p><p style=""position: absolute; top: 30px; right: 30px; text-align:right; font-size:50px"""">N = 1</p>","d",1,73,2544.69999998808,0,"agree",19,18,18,17,16,"52","male","good","Very Strong Agreement","Strong Agreement","Strong Agreement","Very Strong Agreement","Strong Agreement","Very Strong Agreement","Strong Agreement","Strong Agreement","Very Strong Agreement","Strong Agreement","Strong Agreement","Strong Agreement","Very Strong Agreement","Strong Agreement","Strong Agreement","Strong Agreement","Strong Agreement","Strong Agreement"
"10","A153F5VZEWLJ6K:31QNSG6A5SZ7EAQAF2Y6G0GN89U87W","practice",1,10,1,"NA","<p style=""font-size:100px""><b>G</b></p><p style=""position: absolute; top: 30px; right: 30px; text-align:right; font-size:50px"""">N = 1</p>","G",0,73,3505.10000002384,1,"agree",19,18,18,17,16,"52","male","good","Very Strong Agreement","Strong Agreement","Strong Agreement","Very Strong Agreement","Strong Agreement","Very Strong Agreement","Strong Agreement","Strong Agreement","Very Strong Agreement","Strong Agreement","Strong Agreement","Strong Agreement","Very Strong Agreement","Strong Agreement","Strong Agreement","Strong Agreement","Strong Agreement","Strong Agreement"
"11","A153F5VZEWLJ6K:31QNSG6A5SZ7EAQAF2Y6G0GN89U87W","practice",1,11,1,"NA","<p style=""font-size:100px""><b>V</b></p><p style=""position: absolute; top: 30px; right: 30px; text-align:right; font-size:50px"""">N = 1</p>","V",0,73,3814.70000004768,1,"agree",19,18,18,17,16,"52","male","good","Very Strong Agreement","Strong Agreement","Strong Agreement","Very Strong Agreement","Strong Agreement","Very Strong Agreement","Strong Agreement","Strong Agreement","Very Strong Agreement","Strong Agreement","Strong Agreement","Strong Agreement","Very Strong Agreement","Strong Agreement","Strong Agreement","Strong Agreement","Strong Agreement","Strong Agreement"
"12","A153F5VZEWLJ6K:31QNSG6A5SZ7EAQAF2Y6G0GN89U87W","practice",1,12,1,"NA","<p style=""font-size:100px""><b>G</b></p><p style=""position: absolute; top: 30px; right: 30px; text-align:right; font-size:50px"""">N = 1</p>","G",0,73,2946.10000002384,1,"agree",19,18,18,17,16,"52","male","good","Very Strong Agreement","Strong Agreement","Strong Agreement","Very Strong Agreement","Strong Agreement","Very Strong Agreement","Strong Agreement","Strong Agreement","Very Strong Agreement","Strong Agreement","Strong Agreement","Strong Agreement","Very Strong Agreement","Strong Agreement","Strong Agreement","Strong Agreement","Strong Agreement","Strong Agreement"
"13","A153F5VZEWLJ6K:31QNSG6A5SZ7EAQAF2Y6G0GN89U87W","practice",2,1,2,"NA","<p style=""font-size:100px""><b>G</b></p><p style=""position: absolute; top: 30px; right: 30px; text-align:right; font-size:50px"""">N = 2</p>","G",0,73,3732.19999998808,1,"agree",19,18,18,17,16,"52","male","good","Very Strong Agreement","Strong Agreement","Strong Agreement","Very Strong Agreement","Strong Agreement","Very Strong Agreement","Strong Agreement","Strong Agreement","Very Strong Agreement","Strong Agreement","Strong Agreement","Strong Agreement","Very Strong Agreement","Strong Agreement","Strong Agreement","Strong Agreement","Strong Agreement","Strong Agreement"
"14","A153F5VZEWLJ6K:31QNSG6A5SZ7EAQAF2Y6G0GN89U87W","practice",2,2,2,"NA","<p style=""font-size:100px""><b>v</b></p><p style=""position: absolute; top: 30px; right: 30px; text-align:right; font-size:50px"""">N = 2</p>","v",0,73,2795.89999997616,1,"agree",19,18,18,17,16,"52","male","good","Very Strong Agreement","Strong Agreement","Strong Agreement","Very Strong Agreement","Strong Agreement","Very Strong Agreement","Strong Agreement","Strong Agreement","Very Strong Agreement","Strong Agreement","Strong Agreement","Strong Agreement","Very Strong Agreement","Strong Agreement","Strong Agreement","Strong Agreement","Strong Agreement","Strong Agreement"
"15","A153F5VZEWLJ6K:31QNSG6A5SZ7EAQAF2Y6G0GN89U87W","practice",2,3,2,"NA","<p style=""font-size:100px""><b>D</b></p><p style=""position: absolute; top: 30px; right: 30px; text-align:right; font-size:50px"""">N = 2</p>","D",0,73,2614.5,1,"agree",19,18,18,17,16,"52","male","good","Very Strong Agreement","Strong Agreement","Strong Agreement","Very Strong Agreement","Strong Agreement","Very Strong Agreement","Strong Agreement","Strong Agreement","Very Strong Agreement","Strong Agreement","Strong Agreement","Strong Agreement","Very Strong Agreement","Strong Agreement","Strong Agreement","Strong Agreement","Strong Agreement","Strong Agreement"
"16","A153F5VZEWLJ6K:31QNSG6A5SZ7EAQAF2Y6G0GN89U87W","practice",2,4,2,"NA","<p style=""font-size:100px""><b>v</b></p><p style=""position: absolute; top: 30px; right: 30px; text-align:right; font-size:50px"""">N = 2</p>","v",1,73,2230.69999998808,0,"agree",19,18,18,17,16,"52","male","good","Very Strong Agreement","Strong Agreement","Strong Agreement","Very Strong Agreement","Strong Agreement","Very Strong Agreement","Strong Agreement","Strong Agreement","Very Strong Agreement","Strong Agreement","Strong Agreement","Strong Agreement","Very Strong Agreement","Strong Agreement","Strong Agreement","Strong Agreement","Strong Agreement","Strong Agreement"
"17","A153F5VZEWLJ6K:31QNSG6A5SZ7EAQAF2Y6G0GN89U87W","practice",2,5,2,"NA","<p style=""font-size:100px""><b>G</b></p><p style=""position: absolute; top: 30px; right: 30px; text-align:right; font-size:50px"""">N = 2</p>","G",0,69,1960.80000001192,0,"agree",19,18,18,17,16,"52","male","good","Very Strong Agreement","Strong Agreement","Strong Agreement","Very Strong Agreement","Strong Agreement","Very Strong Agreement","Strong Agreement","Strong Agreement","Very Strong Agreement","Strong Agreement","Strong Agreement","Strong Agreement","Very Strong Agreement","Strong Agreement","Strong Agreement","Strong Agreement","Strong Agreement","Strong Agreement"
"18","A153F5VZEWLJ6K:31QNSG6A5SZ7EAQAF2Y6G0GN89U87W","practice",2,6,2,"NA","<p style=""font-size:100px""><b>v</b></p><p style=""position: absolute; top: 30px; right: 30px; text-align:right; font-size:50px"""">N = 2</p>","v",1,73,1505.5,0,"agree",19,18,18,17,16,"52","male","good","Very Strong Agreement","Strong Agreement","Strong Agreement","Very Strong Agreement","Strong Agreement","Very Strong Agreement","Strong Agreement","Strong Agreement","Very Strong Agreement","Strong Agreement","Strong Agreement","Strong Agreement","Very Strong Agreement","Strong Agreement","Strong Agreement","Strong Agreement","Strong Agreement","Strong Agreement"
"19","A153F5VZEWLJ6K:31QNSG6A5SZ7EAQAF2Y6G0GN89U87W","practice",2,7,2,"NA","<p style=""font-size:100px""><b>G</b></p><p style=""position: absolute; top: 30px; right: 30px; text-align:right; font-size:50px"""">N = 2</p>","G",1,69,1416.80000001192,1,"agree",19,18,18,17,16,"52","male","good","Very Strong Agreement","Strong Agreement","Strong Agreement","Very Strong Agreement","Strong Agreement","Very Strong Agreement","Strong Agreement","Strong Agreement","Very Strong Agreement","Strong Agreement","Strong Agreement","Strong Agreement","Very Strong Agreement","Strong Agreement","Strong Agreement","Strong Agreement","Strong Agreement","Strong Agreement"
"20","A153F5VZEWLJ6K:31QNSG6A5SZ7EAQAF2Y6G0GN89U87W","practice",2,8,2,"NA","<p style=""font-size:100px""><b>v</b></p><p style=""position: absolute; top: 30px; right: 30px; text-align:right; font-size:50px"""">N = 2</p>","v",1,69,2204.80000001192,1,"agree",19,18,18,17,16,"52","male","good","Very Strong Agreement","Strong Agreement","Strong Agreement","Very Strong Agreement","Strong Agreement","Very Strong Agreement","Strong Agreement","Strong Agreement","Very Strong Agreement","Strong Agreement","Strong Agreement","Strong Agreement","Very Strong Agreement","Strong Agreement","Strong Agreement","Strong Agreement","Strong Agreement","Strong Agreement"
"21","A153F5VZEWLJ6K:31QNSG6A5SZ7EAQAF2Y6G0GN89U87W","practice",2,9,2,"NA","<p style=""font-size:100px""><b>b</b></p><p style=""position: absolute; top: 30px; right: 30px; text-align:right; font-size:50px"""">N = 2</p>","b",0,73,1495.59999996424,1,"agree",19,18,18,17,16,"52","male","good","Very Strong Agreement","Strong Agreement","Strong Agreement","Very Strong Agreement","Strong Agreement","Very Strong Agreement","Strong Agreement","Strong Agreement","Very Strong Agreement","Strong Agreement","Strong Agreement","Strong Agreement","Very Strong Agreement","Strong Agreement","Strong Agreement","Strong Agreement","Strong Agreement","Strong Agreement"
"22","A153F5VZEWLJ6K:31QNSG6A5SZ7EAQAF2Y6G0GN89U87W","practice",2,10,2,"NA","<p style=""font-size:100px""><b>T</b></p><p style=""position: absolute; top: 30px; right: 30px; text-align:right; font-size:50px"""">N = 2</p>","T",0,73,1936.60000002384,1,"agree",19,18,18,17,16,"52","male","good","Very Strong Agreement","Strong Agreement","Strong Agreement","Very Strong Agreement","Strong Agreement","Very Strong Agreement","Strong Agreement","Strong Agreement","Very Strong Agreement","Strong Agreement","Strong Agreement","Strong Agreement","Very Strong Agreement","Strong Agreement","Strong Agreement","Strong Agreement","Strong Agreement","Strong Agreement"
"23","A153F5VZEWLJ6K:31QNSG6A5SZ7EAQAF2Y6G0GN89U87W","practice",2,11,2,"NA","<p style=""font-size:100px""><b>p</b></p><p style=""position: absolute; top: 30px; right: 30px; text-align:right; font-size:50px"""">N = 2</p>","p",0,73,2203.59999996424,1,"agree",19,18,18,17,16,"52","male","good","Very Strong Agreement","Strong Agreement","Strong Agreement","Very Strong Agreement","Strong Agreement","Very Strong Agreement","Strong Agreement","Strong Agreement","Very Strong Agreement","Strong Agreement","Strong Agreement","Strong Agreement","Very Strong Agreement","Strong Agreement","Strong Agreement","Strong Agreement","Strong Agreement","Strong Agreement"
"24","A153F5VZEWLJ6K:31QNSG6A5SZ7EAQAF2Y6G0GN89U87W","practice",2,12,2,"NA","<p style=""font-size:100px""><b>G</b></p><p style=""position: absolute; top: 30px; right: 30px; text-align:right; font-size:50px"""">N = 2</p>","G",0,69,1395.69999998808,0,"agree",19,18,18,17,16,"52","male","good","Very Strong Agreement","Strong Agreement","Strong Agreement","Very Strong Agreement","Strong Agreement","Very Strong Agreement","Strong Agreement","Strong Agreement","Very Strong Agreement","Strong Agreement","Strong Agreement","Strong Agreement","Very Strong Agreement","Strong Agreement","Strong Agreement","Strong Agreement","Strong Agreement","Strong Agreement"
"25","A153F5VZEWLJ6K:31QNSG6A5SZ7EAQAF2Y6G0GN89U87W","practice",3,1,3,"NA","<p style=""font-size:100px""><b>d</b></p><p style=""position: absolute; top: 30px; right: 30px; text-align:right; font-size:50px"""">N = 3</p>","d",0,73,1916.39999997616,1,"agree",19,18,18,17,16,"52","male","good","Very Strong Agreement","Strong Agreement","Strong Agreement","Very Strong Agreement","Strong Agreement","Very Strong Agreement","Strong Agreement","Strong Agreement","Very Strong Agreement","Strong Agreement","Strong Agreement","Strong Agreement","Very Strong Agreement","Strong Agreement","Strong Agreement","Strong Agreement","Strong Agreement","Strong Agreement"
"26","A153F5VZEWLJ6K:31QNSG6A5SZ7EAQAF2Y6G0GN89U87W","practice",3,2,3,"NA","<p style=""font-size:100px""><b>t</b></p><p style=""position: absolute; top: 30px; right: 30px; text-align:right; font-size:50px"""">N = 3</p>","t",0,73,2420.59999996424,1,"agree",19,18,18,17,16,"52","male","good","Very Strong Agreement","Strong Agreement","Strong Agreement","Very Strong Agreement","Strong Agreement","Very Strong Agreement","Strong Agreement","Strong Agreement","Very Strong Agreement","Strong Agreement","Strong Agreement","Strong Agreement","Very Strong Agreement","Strong Agreement","Strong Agreement","Strong Agreement","Strong Agreement","Strong Agreement"
"27","A153F5VZEWLJ6K:31QNSG6A5SZ7EAQAF2Y6G0GN89U87W","practice",3,3,3,"NA","<p style=""font-size:100px""><b>p</b></p><p style=""position: absolute; top: 30px; right: 30px; text-align:right; font-size:50px"""">N = 3</p>","p",0,73,2874.69999998808,1,"agree",19,18,18,17,16,"52","male","good","Very Strong Agreement","Strong Agreement","Strong Agreement","Very Strong Agreement","Strong Agreement","Very Strong Agreement","Strong Agreement","Strong Agreement","Very Strong Agreement","Strong Agreement","Strong Agreement","Strong Agreement","Very Strong Agreement","Strong Agreement","Strong Agreement","Strong Agreement","Strong Agreement","Strong Agreement"
"28","A153F5VZEWLJ6K:31QNSG6A5SZ7EAQAF2Y6G0GN89U87W","practice",3,4,3,"NA","<p style=""font-size:100px""><b>v</b></p><p style=""position: absolute; top: 30px; right: 30px; text-align:right; font-size:50px"""">N = 3</p>","v",0,73,1733.5,1,"agree",19,18,18,17,16,"52","male","good","Very Strong Agreement","Strong Agreement","Strong Agreement","Very Strong Agreement","Strong Agreement","Very Strong Agreement","Strong Agreement","Strong Agreement","Very Strong Agreement","Strong Agreement","Strong Agreement","Strong Agreement","Very Strong Agreement","Strong Agreement","Strong Agreement","Strong Agreement","Strong Agreement","Strong Agreement"
"29","A153F5VZEWLJ6K:31QNSG6A5SZ7EAQAF2Y6G0GN89U87W","practice",3,5,3,"NA","<p style=""font-size:100px""><b>t</b></p><p style=""position: absolute; top: 30px; right: 30px; text-align:right; font-size:50px"""">N = 3</p>","t",1,73,1805.5,0,"agree",19,18,18,17,16,"52","male","good","Very Strong Agreement","Strong Agreement","Strong Agreement","Very Strong Agreement","Strong Agreement","Very Strong Agreement","Strong Agreement","Strong Agreement","Very Strong Agreement","Strong Agreement","Strong Agreement","Strong Agreement","Very Strong Agreement","Strong Agreement","Strong Agreement","Strong Agreement","Strong Agreement","Strong Agreement"
"30","A153F5VZEWLJ6K:31QNSG6A5SZ7EAQAF2Y6G0GN89U87W","practice",3,6,3,"NA","<p style=""font-size:100px""><b>p</b></p><p style=""position: absolute; top: 30px; right: 30px; text-align:right; font-size:50px"""">N = 3</p>","p",1,69,2806.39999997616,1,"agree",19,18,18,17,16,"52","male","good","Very Strong Agreement","Strong Agreement","Strong Agreement","Very Strong Agreement","Strong Agreement","Very Strong Agreement","Strong Agreement","Strong Agreement","Very Strong Agreement","Strong Agreement","Strong Agreement","Strong Agreement","Very Strong Agreement","Strong Agreement","Strong Agreement","Strong Agreement","Strong Agreement","Strong Agreement"
"31","A153F5VZEWLJ6K:31QNSG6A5SZ7EAQAF2Y6G0GN89U87W","practice",3,7,3,"NA","<p style=""font-size:100px""><b>b</b></p><p style=""position: absolute; top: 30px; right: 30px; text-align:right; font-size:50px"""">N = 3</p>","b",0,73,2235.5,1,"agree",19,18,18,17,16,"52","male","good","Very Strong Agreement","Strong Agreement","Strong Agreement","Very Strong Agreement","Strong Agreement","Very Strong Agreement","Strong Agreement","Strong Agreement","Very Strong Agreement","Strong Agreement","Strong Agreement","Strong Agreement","Very Strong Agreement","Strong Agreement","Strong Agreement","Strong Agreement","Strong Agreement","Strong Agreement"
"32","A153F5VZEWLJ6K:31QNSG6A5SZ7EAQAF2Y6G0GN89U87W","practice",3,8,3,"NA","<p style=""font-size:100px""><b>v</b></p><p style=""position: absolute; top: 30px; right: 30px; text-align:right; font-size:50px"""">N = 3</p>","v",0,73,1875.5,1,"agree",19,18,18,17,16,"52","male","good","Very Strong Agreement","Strong Agreement","Strong Agreement","Very Strong Agreement","Strong Agreement","Very Strong Agreement","Strong Agreement","Strong Agreement","Very Strong Agreement","Strong Agreement","Strong Agreement","Strong Agreement","Very Strong Agreement","Strong Agreement","Strong Agreement","Strong Agreement","Strong Agreement","Strong Agreement"
"33","A153F5VZEWLJ6K:31QNSG6A5SZ7EAQAF2Y6G0GN89U87W","practice",3,9,3,"NA","<p style=""font-size:100px""><b>p</b></p><p style=""position: absolute; top: 30px; right: 30px; text-align:right; font-size:50px"""">N = 3</p>","p",1,69,1985.5,1,"agree",19,18,18,17,16,"52","male","good","Very Strong Agreement","Strong Agreement","Strong Agreement","Very Strong Agreement","Strong Agreement","Very Strong Agreement","Strong Agreement","Strong Agreement","Very Strong Agreement","Strong Agreement","Strong Agreement","Strong Agreement","Very Strong Agreement","Strong Agreement","Strong Agreement","Strong Agreement","Strong Agreement","Strong Agreement"
"34","A153F5VZEWLJ6K:31QNSG6A5SZ7EAQAF2Y6G0GN89U87W","practice",3,10,3,"NA","<p style=""font-size:100px""><b>V</b></p><p style=""position: absolute; top: 30px; right: 30px; text-align:right; font-size:50px"""">N = 3</p>","V",0,73,1707.19999998808,1,"agree",19,18,18,17,16,"52","male","good","Very Strong Agreement","Strong Agreement","Strong Agreement","Very Strong Agreement","Strong Agreement","Very Strong Agreement","Strong Agreement","Strong Agreement","Very Strong Agreement","Strong Agreement","Strong Agreement","Strong Agreement","Very Strong Agreement","Strong Agreement","Strong Agreement","Strong Agreement","Strong Agreement","Strong Agreement"
"35","A153F5VZEWLJ6K:31QNSG6A5SZ7EAQAF2Y6G0GN89U87W","practice",3,11,3,"NA","<p style=""font-size:100px""><b>v</b></p><p style=""position: absolute; top: 30px; right: 30px; text-align:right; font-size:50px"""">N = 3</p>","v",1,73,1803.5,0,"agree",19,18,18,17,16,"52","male","good","Very Strong Agreement","Strong Agreement","Strong Agreement","Very Strong Agreement","Strong Agreement","Very Strong Agreement","Strong Agreement","Strong Agreement","Very Strong Agreement","Strong Agreement","Strong Agreement","Strong Agreement","Very Strong Agreement","Strong Agreement","Strong Agreement","Strong Agreement","Strong Agreement","Strong Agreement"
"36","A153F5VZEWLJ6K:31QNSG6A5SZ7EAQAF2Y6G0GN89U87W","practice",3,12,3,"NA","<p style=""font-size:100px""><b>b</b></p><p style=""position: absolute; top: 30px; right: 30px; text-align:right; font-size:50px"""">N = 3</p>","b",0,73,1215.39999997616,1,"agree",19,18,18,17,16,"52","male","good","Very Strong Agreement","Strong Agreement","Strong Agreement","Very Strong Agreement","Strong Agreement","Very Strong Agreement","Strong Agreement","Strong Agreement","Very Strong Agreement","Strong Agreement","Strong Agreement","Strong Agreement","Very Strong Agreement","Strong Agreement","Strong Agreement","Strong Agreement","Strong Agreement","Strong Agreement"
"37","A153F5VZEWLJ6K:31QNSG6A5SZ7EAQAF2Y6G0GN89U87W","1",1,1,3,"50","<p style=""font-size:100px""><b>T</b></p><p style=""position: absolute; top: 30px; right: 30px; text-align:right; font-size:50px"""">N = 3</p>","T",0,NA,NA,0,"agree",19,18,18,17,16,"52","male","good","Very Strong Agreement","Strong Agreement","Strong Agreement","Very Strong Agreement","Strong Agreement","Very Strong Agreement","Strong Agreement","Strong Agreement","Very Strong Agreement","Strong Agreement","Strong Agreement","Strong Agreement","Very Strong Agreement","Strong Agreement","Strong Agreement","Strong Agreement","Strong Agreement","Strong Agreement"
"38","A153F5VZEWLJ6K:31QNSG6A5SZ7EAQAF2Y6G0GN89U87W","1",1,2,3,"50","<p style=""font-size:100px""><b>P</b></p><p style=""position: absolute; top: 30px; right: 30px; text-align:right; font-size:50px"""">N = 3</p>","P",0,NA,NA,0,"agree",19,18,18,17,16,"52","male","good","Very Strong Agreement","Strong Agreement","Strong Agreement","Very Strong Agreement","Strong Agreement","Very Strong Agreement","Strong Agreement","Strong Agreement","Very Strong Agreement","Strong Agreement","Strong Agreement","Strong Agreement","Very Strong Agreement","Strong Agreement","Strong Agreement","Strong Agreement","Strong Agreement","Strong Agreement"
"39","A153F5VZEWLJ6K:31QNSG6A5SZ7EAQAF2Y6G0GN89U87W","1",1,3,3,"50","<p style=""font-size:100px""><b>V</b></p><p style=""position: absolute; top: 30px; right: 30px; text-align:right; font-size:50px"""">N = 3</p>","V",0,73,72.6999999880791,1,"agree",19,18,18,17,16,"52","male","good","Very Strong Agreement","Strong Agreement","Strong Agreement","Very Strong Agreement","Strong Agreement","Very Strong Agreement","Strong Agreement","Strong Agreement","Very Strong Agreement","Strong Agreement","Strong Agreement","Strong Agreement","Very Strong Agreement","Strong Agreement","Strong Agreement","Strong Agreement","Strong Agreement","Strong Agreement"
"40","A153F5VZEWLJ6K:31QNSG6A5SZ7EAQAF2Y6G0GN89U87W","1",1,4,3,"50","<p style=""font-size:100px""><b>V</b></p><p style=""position: absolute; top: 30px; right: 30px; text-align:right; font-size:50px"""">N = 3</p>","V",0,NA,NA,0,"agree",19,18,18,17,16,"52","male","good","Very Strong Agreement","Strong Agreement","Strong Agreement","Very Strong Agreement","Strong Agreement","Very Strong Agreement","Strong Agreement","Strong Agreement","Very Strong Agreement","Strong Agreement","Strong Agreement","Strong Agreement","Very Strong Agreement","Strong Agreement","Strong Agreement","Strong Agreement","Strong Agreement","Strong Agreement"
"41","A153F5VZEWLJ6K:31QNSG6A5SZ7EAQAF2Y6G0GN89U87W","1",1,5,3,"50","<p style=""font-size:100px""><b>P</b></p><p style=""position: absolute; top: 30px; right: 30px; text-align:right; font-size:50px"""">N = 3</p>","P",0,69,165.5,0,"agree",19,18,18,17,16,"52","male","good","Very Strong Agreement","Strong Agreement","Strong Agreement","Very Strong Agreement","Strong Agreement","Very Strong Agreement","Strong Agreement","Strong Agreement","Very Strong Agreement","Strong Agreement","Strong Agreement","Strong Agreement","Very Strong Agreement","Strong Agreement","Strong Agreement","Strong Agreement","Strong Agreement","Strong Agreement"
"42","A153F5VZEWLJ6K:31QNSG6A5SZ7EAQAF2Y6G0GN89U87W","1",1,6,3,"50","<p style=""font-size:100px""><b>d</b></p><p style=""position: absolute; top: 30px; right: 30px; text-align:right; font-size:50px"""">N = 3</p>","d",0,NA,NA,0,"agree",19,18,18,17,16,"52","male","good","Very Strong Agreement","Strong Agreement","Strong Agreement","Very Strong Agreement","Strong Agreement","Very Strong Agreement","Strong Agreement","Strong Agreement","Very Strong Agreement","Strong Agreement","Strong Agreement","Strong Agreement","Very Strong Agreement","Strong Agreement","Strong Agreement","Strong Agreement","Strong Agreement","Strong Agreement"
"43","A153F5VZEWLJ6K:31QNSG6A5SZ7EAQAF2Y6G0GN89U87W","1",1,7,3,"50","<p style=""font-size:100px""><b>d</b></p><p style=""position: absolute; top: 30px; right: 30px; text-align:right; font-size:50px"""">N = 3</p>","d",0,73,62.5999999642372,1,"agree",19,18,18,17,16,"52","male","good","Very Strong Agreement","Strong Agreement","Strong Agreement","Very Strong Agreement","Strong Agreement","Very Strong Agreement","Strong Agreement","Strong Agreement","Very Strong Agreement","Strong Agreement","Strong Agreement","Strong Agreement","Very Strong Agreement","Strong Agreement","Strong Agreement","Strong Agreement","Strong Agreement","Strong Agreement"
"44","A153F5VZEWLJ6K:31QNSG6A5SZ7EAQAF2Y6G0GN89U87W","1",1,8,3,"50","<p style=""font-size:100px""><b>P</b></p><p style=""position: absolute; top: 30px; right: 30px; text-align:right; font-size:50px"""">N = 3</p>","P",0,NA,NA,0,"agree",19,18,18,17,16,"52","male","good","Very Strong Agreement","Strong Agreement","Strong Agreement","Very Strong Agreement","Strong Agreement","Very Strong Agreement","Strong Agreement","Strong Agreement","Very Strong Agreement","Strong Agreement","Strong Agreement","Strong Agreement","Very Strong Agreement","Strong Agreement","Strong Agreement","Strong Agreement","Strong Agreement","Strong Agreement"
"45","A153F5VZEWLJ6K:31QNSG6A5SZ7EAQAF2Y6G0GN89U87W","1",1,9,3,"50","<p style=""font-size:100px""><b>G</b></p><p style=""position: absolute; top: 30px; right: 30px; text-align:right; font-size:50px"""">N = 3</p>","G",0,69,309,0,"agree",19,18,18,17,16,"52","male","good","Very Strong Agreement","Strong Agreement","Strong Agreement","Very Strong Agreement","Strong Agreement","Very Strong Agreement","Strong Agreement","Strong Agreement","Very Strong Agreement","Strong Agreement","Strong Agreement","Strong Agreement","Very Strong Agreement","Strong Agreement","Strong Agreement","Strong Agreement","Strong Agreement","Strong Agreement"
"46","A153F5VZEWLJ6K:31QNSG6A5SZ7EAQAF2Y6G0GN89U87W","1",1,10,3,"50","<p style=""font-size:100px""><b>d</b></p><p style=""position: absolute; top: 30px; right: 30px; text-align:right; font-size:50px"""">N = 3</p>","d",0,69,169.199999988079,0,"agree",19,18,18,17,16,"52","male","good","Very Strong Agreement","Strong Agreement","Strong Agreement","Very Strong Agreement","Strong Agreement","Very Strong Agreement","Strong Agreement","Strong Agreement","Very Strong Agreement","Strong Agreement","Strong Agreement","Strong Agreement","Very Strong Agreement","Strong Agreement","Strong Agreement","Strong Agreement","Strong Agreement","Strong Agreement"
"47","A153F5VZEWLJ6K:31QNSG6A5SZ7EAQAF2Y6G0GN89U87W","1",1,11,3,"50","<p style=""font-size:100px""><b>v</b></p><p style=""position: absolute; top: 30px; right: 30px; text-align:right; font-size:50px"""">N = 3</p>","v",0,73,218.899999976158,1,"agree",19,18,18,17,16,"52","male","good","Very Strong Agreement","Strong Agreement","Strong Agreement","Very Strong Agreement","Strong Agreement","Very Strong Agreement","Strong Agreement","Strong Agreement","Very Strong Agreement","Strong Agreement","Strong Agreement","Strong Agreement","Very Strong Agreement","Strong Agreement","Strong Agreement","Strong Agreement","Strong Agreement","Strong Agreement"
"48","A153F5VZEWLJ6K:31QNSG6A5SZ7EAQAF2Y6G0GN89U87W","1",1,12,3,"50","<p style=""font-size:100px""><b>G</b></p><p style=""position: absolute; top: 30px; right: 30px; text-align:right; font-size:50px"""">N = 3</p>","G",0,69,258.899999976158,0,"agree",19,18,18,17,16,"52","male","good","Very Strong Agreement","Strong Agreement","Strong Agreement","Very Strong Agreement","Strong Agreement","Very Strong Agreement","Strong Agreement","Strong Agreement","Very Strong Agreement","Strong Agreement","Strong Agreement","Strong Agreement","Very Strong Agreement","Strong Agreement","Strong Agreement","Strong Agreement","Strong Agreement","Strong Agreement"
"49","A153F5VZEWLJ6K:31QNSG6A5SZ7EAQAF2Y6G0GN89U87W","1",2,1,1,"5","<p style=""font-size:100px""><b>t</b></p><p style=""position: absolute; top: 30px; right: 30px; text-align:right; font-size:50px"""">N = 1</p>","t",0,NA,NA,0,"agree",16,18,18,17,18,"52","male","good","Very Strong Agreement","Strong Agreement","Strong Agreement","Very Strong Agreement","Strong Agreement","Very Strong Agreement","Strong Agreement","Strong Agreement","Very Strong Agreement","Strong Agreement","Strong Agreement","Strong Agreement","Very Strong Agreement","Strong Agreement","Strong Agreement","Strong Agreement","Strong Agreement","Strong Agreement"
"50","A153F5VZEWLJ6K:31QNSG6A5SZ7EAQAF2Y6G0GN89U87W","1",2,2,1,"5","<p style=""font-size:100px""><b>B</b></p><p style=""position: absolute; top: 30px; right: 30px; text-align:right; font-size:50px"""">N = 1</p>","B",0,NA,NA,0,"agree",16,18,18,17,18,"52","male","good","Very Strong Agreement","Strong Agreement","Strong Agreement","Very Strong Agreement","Strong Agreement","Very Strong Agreement","Strong Agreement","Strong Agreement","Very Strong Agreement","Strong Agreement","Strong Agreement","Strong Agreement","Very Strong Agreement","Strong Agreement","Strong Agreement","Strong Agreement","Strong Agreement","Strong Agreement"
"51","A153F5VZEWLJ6K:31QNSG6A5SZ7EAQAF2Y6G0GN89U87W","1",2,3,1,"5","<p style=""font-size:100px""><b>B</b></p><p style=""position: absolute; top: 30px; right: 30px; text-align:right; font-size:50px"""">N = 1</p>","B",0,NA,NA,0,"agree",16,18,18,17,18,"52","male","good","Very Strong Agreement","Strong Agreement","Strong Agreement","Very Strong Agreement","Strong Agreement","Very Strong Agreement","Strong Agreement","Strong Agreement","Very Strong Agreement","Strong Agreement","Strong Agreement","Strong Agreement","Very Strong Agreement","Strong Agreement","Strong Agreement","Strong Agreement","Strong Agreement","Strong Agreement"
"52","A153F5VZEWLJ6K:31QNSG6A5SZ7EAQAF2Y6G0GN89U87W","1",2,4,1,"5","<p style=""font-size:100px""><b>g</b></p><p style=""position: absolute; top: 30px; right: 30px; text-align:right; font-size:50px"""">N = 1</p>","g",0,73,783.5,1,"agree",16,18,18,17,18,"52","male","good","Very Strong Agreement","Strong Agreement","Strong Agreement","Very Strong Agreement","Strong Agreement","Very Strong Agreement","Strong Agreement","Strong Agreement","Very Strong Agreement","Strong Agreement","Strong Agreement","Strong Agreement","Very Strong Agreement","Strong Agreement","Strong Agreement","Strong Agreement","Strong Agreement","Strong Agreement"
"53","A153F5VZEWLJ6K:31QNSG6A5SZ7EAQAF2Y6G0GN89U87W","1",2,5,1,"5","<p style=""font-size:100px""><b>v</b></p><p style=""position: absolute; top: 30px; right: 30px; text-align:right; font-size:50px"""">N = 1</p>","v",0,73,169.299999952316,1,"agree",16,18,18,17,18,"52","male","good","Very Strong Agreement","Strong Agreement","Strong Agreement","Very Strong Agreement","Strong Agreement","Very Strong Agreement","Strong Agreement","Strong Agreement","Very Strong Agreement","Strong Agreement","Strong Agreement","Strong Agreement","Very Strong Agreement","Strong Agreement","Strong Agreement","Strong Agreement","Strong Agreement","Strong Agreement"
"54","A153F5VZEWLJ6K:31QNSG6A5SZ7EAQAF2Y6G0GN89U87W","1",2,6,1,"5","<p style=""font-size:100px""><b>v</b></p><p style=""position: absolute; top: 30px; right: 30px; text-align:right; font-size:50px"""">N = 1</p>","v",0,69,179,0,"agree",16,18,18,17,18,"52","male","good","Very Strong Agreement","Strong Agreement","Strong Agreement","Very Strong Agreement","Strong Agreement","Very Strong Agreement","Strong Agreement","Strong Agreement","Very Strong Agreement","Strong Agreement","Strong Agreement","Strong Agreement","Very Strong Agreement","Strong Agreement","Strong Agreement","Strong Agreement","Strong Agreement","Strong Agreement"
"55","A153F5VZEWLJ6K:31QNSG6A5SZ7EAQAF2Y6G0GN89U87W","1",2,7,1,"5","<p style=""font-size:100px""><b>v</b></p><p style=""position: absolute; top: 30px; right: 30px; text-align:right; font-size:50px"""">N = 1</p>","v",0,NA,NA,0,"agree",16,18,18,17,18,"52","male","good","Very Strong Agreement","Strong Agreement","Strong Agreement","Very Strong Agreement","Strong Agreement","Very Strong Agreement","Strong Agreement","Strong Agreement","Very Strong Agreement","Strong Agreement","Strong Agreement","Strong Agreement","Very Strong Agreement","Strong Agreement","Strong Agreement","Strong Agreement","Strong Agreement","Strong Agreement"
"56","A153F5VZEWLJ6K:31QNSG6A5SZ7EAQAF2Y6G0GN89U87W","1",2,8,1,"5","<p style=""font-size:100px""><b>d</b></p><p style=""position: absolute; top: 30px; right: 30px; text-align:right; font-size:50px"""">N = 1</p>","d",0,NA,NA,0,"agree",16,18,18,17,18,"52","male","good","Very Strong Agreement","Strong Agreement","Strong Agreement","Very Strong Agreement","Strong Agreement","Very Strong Agreement","Strong Agreement","Strong Agreement","Very Strong Agreement","Strong Agreement","Strong Agreement","Strong Agreement","Very Strong Agreement","Strong Agreement","Strong Agreement","Strong Agreement","Strong Agreement","Strong Agreement"
"57","A153F5VZEWLJ6K:31QNSG6A5SZ7EAQAF2Y6G0GN89U87W","1",2,9,1,"5","<p style=""font-size:100px""><b>v</b></p><p style=""position: absolute; top: 30px; right: 30px; text-align:right; font-size:50px"""">N = 1</p>","v",0,NA,NA,0,"agree",16,18,18,17,18,"52","male","good","Very Strong Agreement","Strong Agreement","Strong Agreement","Very Strong Agreement","Strong Agreement","Very Strong Agreement","Strong Agreement","Strong Agreement","Very Strong Agreement","Strong Agreement","Strong Agreement","Strong Agreement","Very Strong Agreement","Strong Agreement","Strong Agreement","Strong Agreement","Strong Agreement","Strong Agreement"
"58","A153F5VZEWLJ6K:31QNSG6A5SZ7EAQAF2Y6G0GN89U87W","1",2,10,1,"5","<p style=""font-size:100px""><b>v</b></p><p style=""position: absolute; top: 30px; right: 30px; text-align:right; font-size:50px"""">N = 1</p>","v",0,NA,NA,0,"agree",16,18,18,17,18,"52","male","good","Very Strong Agreement","Strong Agreement","Strong Agreement","Very Strong Agreement","Strong Agreement","Very Strong Agreement","Strong Agreement","Strong Agreement","Very Strong Agreement","Strong Agreement","Strong Agreement","Strong Agreement","Very Strong Agreement","Strong Agreement","Strong Agreement","Strong Agreement","Strong Agreement","Strong Agreement"
"59","A153F5VZEWLJ6K:31QNSG6A5SZ7EAQAF2Y6G0GN89U87W","1",2,11,1,"5","<p style=""font-size:100px""><b>G</b></p><p style=""position: absolute; top: 30px; right: 30px; text-align:right; font-size:50px"""">N = 1</p>","G",0,NA,NA,0,"agree",16,18,18,17,18,"52","male","good","Very Strong Agreement","Strong Agreement","Strong Agreement","Very Strong Agreement","Strong Agreement","Very Strong Agreement","Strong Agreement","Strong Agreement","Very Strong Agreement","Strong Agreement","Strong Agreement","Strong Agreement","Very Strong Agreement","Strong Agreement","Strong Agreement","Strong Agreement","Strong Agreement","Strong Agreement"
"60","A153F5VZEWLJ6K:31QNSG6A5SZ7EAQAF2Y6G0GN89U87W","1",2,12,1,"5","<p style=""font-size:100px""><b>b</b></p><p style=""position: absolute; top: 30px; right: 30px; text-align:right; font-size:50px"""">N = 1</p>","b",0,69,929,0,"agree",16,18,18,17,18,"52","male","good","Very Strong Agreement","Strong Agreement","Strong Agreement","Very Strong Agreement","Strong Agreement","Very Strong Agreement","Strong Agreement","Strong Agreement","Very Strong Agreement","Strong Agreement","Strong Agreement","Strong Agreement","Very Strong Agreement","Strong Agreement","Strong Agreement","Strong Agreement","Strong Agreement","Strong Agreement"
"61","A153F5VZEWLJ6K:31QNSG6A5SZ7EAQAF2Y6G0GN89U87W","1",3,1,3,"5","<p style=""font-size:100px""><b>t</b></p><p style=""position: absolute; top: 30px; right: 30px; text-align:right; font-size:50px"""">N = 3</p>","t",0,NA,NA,0,"agree",16,18,18,17,19,"52","male","good","Very Strong Agreement","Strong Agreement","Strong Agreement","Very Strong Agreement","Strong Agreement","Very Strong Agreement","Strong Agreement","Strong Agreement","Very Strong Agreement","Strong Agreement","Strong Agreement","Strong Agreement","Very Strong Agreement","Strong Agreement","Strong Agreement","Strong Agreement","Strong Agreement","Strong Agreement"
"62","A153F5VZEWLJ6K:31QNSG6A5SZ7EAQAF2Y6G0GN89U87W","1",3,2,3,"5","<p style=""font-size:100px""><b>P</b></p><p style=""position: absolute; top: 30px; right: 30px; text-align:right; font-size:50px"""">N = 3</p>","P",0,NA,NA,0,"agree",16,18,18,17,19,"52","male","good","Very Strong Agreement","Strong Agreement","Strong Agreement","Very Strong Agreement","Strong Agreement","Very Strong Agreement","Strong Agreement","Strong Agreement","Very Strong Agreement","Strong Agreement","Strong Agreement","Strong Agreement","Very Strong Agreement","Strong Agreement","Strong Agreement","Strong Agreement","Strong Agreement","Strong Agreement"
"63","A153F5VZEWLJ6K:31QNSG6A5SZ7EAQAF2Y6G0GN89U87W","1",3,3,3,"5","<p style=""font-size:100px""><b>b</b></p><p style=""position: absolute; top: 30px; right: 30px; text-align:right; font-size:50px"""">N = 3</p>","b",0,73,813.399999976158,1,"agree",16,18,18,17,19,"52","male","good","Very Strong Agreement","Strong Agreement","Strong Agreement","Very Strong Agreement","Strong Agreement","Very Strong Agreement","Strong Agreement","Strong Agreement","Very Strong Agreement","Strong Agreement","Strong Agreement","Strong Agreement","Very Strong Agreement","Strong Agreement","Strong Agreement","Strong Agreement","Strong Agreement","Strong Agreement"
"64","A153F5VZEWLJ6K:31QNSG6A5SZ7EAQAF2Y6G0GN89U87W","1",3,4,3,"5","<p style=""font-size:100px""><b>t</b></p><p style=""position: absolute; top: 30px; right: 30px; text-align:right; font-size:50px"""">N = 3</p>","t",0,73,160.100000023842,1,"agree",16,18,18,17,19,"52","male","good","Very Strong Agreement","Strong Agreement","Strong Agreement","Very Strong Agreement","Strong Agreement","Very Strong Agreement","Strong Agreement","Strong Agreement","Very Strong Agreement","Strong Agreement","Strong Agreement","Strong Agreement","Very Strong Agreement","Strong Agreement","Strong Agreement","Strong Agreement","Strong Agreement","Strong Agreement"
"65","A153F5VZEWLJ6K:31QNSG6A5SZ7EAQAF2Y6G0GN89U87W","1",3,5,3,"5","<p style=""font-size:100px""><b>B</b></p><p style=""position: absolute; top: 30px; right: 30px; text-align:right; font-size:50px"""">N = 3</p>","B",0,69,80.3000000119209,0,"agree",16,18,18,17,19,"52","male","good","Very Strong Agreement","Strong Agreement","Strong Agreement","Very Strong Agreement","Strong Agreement","Very Strong Agreement","Strong Agreement","Strong Agreement","Very Strong Agreement","Strong Agreement","Strong Agreement","Strong Agreement","Very Strong Agreement","Strong Agreement","Strong Agreement","Strong Agreement","Strong Agreement","Strong Agreement"
"66","A153F5VZEWLJ6K:31QNSG6A5SZ7EAQAF2Y6G0GN89U87W","1",3,6,3,"5","<p style=""font-size:100px""><b>T</b></p><p style=""position: absolute; top: 30px; right: 30px; text-align:right; font-size:50px"""">N = 3</p>","T",0,NA,NA,0,"agree",16,18,18,17,19,"52","male","good","Very Strong Agreement","Strong Agreement","Strong Agreement","Very Strong Agreement","Strong Agreement","Very Strong Agreement","Strong Agreement","Strong Agreement","Very Strong Agreement","Strong Agreement","Strong Agreement","Strong Agreement","Very Strong Agreement","Strong Agreement","Strong Agreement","Strong Agreement","Strong Agreement","Strong Agreement"
"67","A153F5VZEWLJ6K:31QNSG6A5SZ7EAQAF2Y6G0GN89U87W","1",3,7,3,"5","<p style=""font-size:100px""><b>t</b></p><p style=""position: absolute; top: 30px; right: 30px; text-align:right; font-size:50px"""">N = 3</p>","t",0,NA,NA,0,"agree",16,18,18,17,19,"52","male","good","Very Strong Agreement","Strong Agreement","Strong Agreement","Very Strong Agreement","Strong Agreement","Very Strong Agreement","Strong Agreement","Strong Agreement","Very Strong Agreement","Strong Agreement","Strong Agreement","Strong Agreement","Very Strong Agreement","Strong Agreement","Strong Agreement","Strong Agreement","Strong Agreement","Strong Agreement"
"68","A153F5VZEWLJ6K:31QNSG6A5SZ7EAQAF2Y6G0GN89U87W","1",3,8,3,"5","<p style=""font-size:100px""><b>B</b></p><p style=""position: absolute; top: 30px; right: 30px; text-align:right; font-size:50px"""">N = 3</p>","B",0,NA,NA,0,"agree",16,18,18,17,19,"52","male","good","Very Strong Agreement","Strong Agreement","Strong Agreement","Very Strong Agreement","Strong Agreement","Very Strong Agreement","Strong Agreement","Strong Agreement","Very Strong Agreement","Strong Agreement","Strong Agreement","Strong Agreement","Very Strong Agreement","Strong Agreement","Strong Agreement","Strong Agreement","Strong Agreement","Strong Agreement"
"69","A153F5VZEWLJ6K:31QNSG6A5SZ7EAQAF2Y6G0GN89U87W","1",3,9,3,"5","<p style=""font-size:100px""><b>p</b></p><p style=""position: absolute; top: 30px; right: 30px; text-align:right; font-size:50px"""">N = 3</p>","p",0,NA,NA,0,"agree",16,18,18,17,19,"52","male","good","Very Strong Agreement","Strong Agreement","Strong Agreement","Very Strong Agreement","Strong Agreement","Very Strong Agreement","Strong Agreement","Strong Agreement","Very Strong Agreement","Strong Agreement","Strong Agreement","Strong Agreement","Very Strong Agreement","Strong Agreement","Strong Agreement","Strong Agreement","Strong Agreement","Strong Agreement"
"70","A153F5VZEWLJ6K:31QNSG6A5SZ7EAQAF2Y6G0GN89U87W","1",3,10,3,"5","<p style=""font-size:100px""><b>D</b></p><p style=""position: absolute; top: 30px; right: 30px; text-align:right; font-size:50px"""">N = 3</p>","D",0,NA,NA,0,"agree",16,18,18,17,19,"52","male","good","Very Strong Agreement","Strong Agreement","Strong Agreement","Very Strong Agreement","Strong Agreement","Very Strong Agreement","Strong Agreement","Strong Agreement","Very Strong Agreement","Strong Agreement","Strong Agreement","Strong Agreement","Very Strong Agreement","Strong Agreement","Strong Agreement","Strong Agreement","Strong Agreement","Strong Agreement"
"71","A153F5VZEWLJ6K:31QNSG6A5SZ7EAQAF2Y6G0GN89U87W","1",3,11,3,"5","<p style=""font-size:100px""><b>B</b></p><p style=""position: absolute; top: 30px; right: 30px; text-align:right; font-size:50px"""">N = 3</p>","B",0,NA,NA,0,"agree",16,18,18,17,19,"52","male","good","Very Strong Agreement","Strong Agreement","Strong Agreement","Very Strong Agreement","Strong Agreement","Very Strong Agreement","Strong Agreement","Strong Agreement","Very Strong Agreement","Strong Agreement","Strong Agreement","Strong Agreement","Very Strong Agreement","Strong Agreement","Strong Agreement","Strong Agreement","Strong Agreement","Strong Agreement"
"72","A153F5VZEWLJ6K:31QNSG6A5SZ7EAQAF2Y6G0GN89U87W","1",3,12,3,"5","<p style=""font-size:100px""><b>t</b></p><p style=""position: absolute; top: 30px; right: 30px; text-align:right; font-size:50px"""">N = 3</p>","t",0,NA,NA,0,"agree",16,18,18,17,19,"52","male","good","Very Strong Agreement","Strong Agreement","Strong Agreement","Very Strong Agreement","Strong Agreement","Very Strong Agreement","Strong Agreement","Strong Agreement","Very Strong Agreement","Strong Agreement","Strong Agreement","Strong Agreement","Very Strong Agreement","Strong Agreement","Strong Agreement","Strong Agreement","Strong Agreement","Strong Agreement"
"73","A153F5VZEWLJ6K:31QNSG6A5SZ7EAQAF2Y6G0GN89U87W","1",4,1,1,"5","<p style=""font-size:100px""><b>G</b></p><p style=""position: absolute; top: 30px; right: 30px; text-align:right; font-size:50px"""">N = 1</p>","G",0,NA,NA,0,"agree",17,19,19,17,19,"52","male","good","Very Strong Agreement","Strong Agreement","Strong Agreement","Very Strong Agreement","Strong Agreement","Very Strong Agreement","Strong Agreement","Strong Agreement","Very Strong Agreement","Strong Agreement","Strong Agreement","Strong Agreement","Very Strong Agreement","Strong Agreement","Strong Agreement","Strong Agreement","Strong Agreement","Strong Agreement"
"74","A153F5VZEWLJ6K:31QNSG6A5SZ7EAQAF2Y6G0GN89U87W","1",4,2,1,"5","<p style=""font-size:100px""><b>t</b></p><p style=""position: absolute; top: 30px; right: 30px; text-align:right; font-size:50px"""">N = 1</p>","t",0,NA,NA,0,"agree",17,19,19,17,19,"52","male","good","Very Strong Agreement","Strong Agreement","Strong Agreement","Very Strong Agreement","Strong Agreement","Very Strong Agreement","Strong Agreement","Strong Agreement","Very Strong Agreement","Strong Agreement","Strong Agreement","Strong Agreement","Very Strong Agreement","Strong Agreement","Strong Agreement","Strong Agreement","Strong Agreement","Strong Agreement"
"75","A153F5VZEWLJ6K:31QNSG6A5SZ7EAQAF2Y6G0GN89U87W","1",4,3,1,"5","<p style=""font-size:100px""><b>t</b></p><p style=""position: absolute; top: 30px; right: 30px; text-align:right; font-size:50px"""">N = 1</p>","t",0,NA,NA,0,"agree",17,19,19,17,19,"52","male","good","Very Strong Agreement","Strong Agreement","Strong Agreement","Very Strong Agreement","Strong Agreement","Very Strong Agreement","Strong Agreement","Strong Agreement","Very Strong Agreement","Strong Agreement","Strong Agreement","Strong Agreement","Very Strong Agreement","Strong Agreement","Strong Agreement","Strong Agreement","Strong Agreement","Strong Agreement"
"76","A153F5VZEWLJ6K:31QNSG6A5SZ7EAQAF2Y6G0GN89U87W","1",4,4,1,"5","<p style=""font-size:100px""><b>b</b></p><p style=""position: absolute; top: 30px; right: 30px; text-align:right; font-size:50px"""">N = 1</p>","b",0,NA,NA,0,"agree",17,19,19,17,19,"52","male","good","Very Strong Agreement","Strong Agreement","Strong Agreement","Very Strong Agreement","Strong Agreement","Very Strong Agreement","Strong Agreement","Strong Agreement","Very Strong Agreement","Strong Agreement","Strong Agreement","Strong Agreement","Very Strong Agreement","Strong Agreement","Strong Agreement","Strong Agreement","Strong Agreement","Strong Agreement"
"77","A153F5VZEWLJ6K:31QNSG6A5SZ7EAQAF2Y6G0GN89U87W","1",4,5,1,"5","<p style=""font-size:100px""><b>D</b></p><p style=""position: absolute; top: 30px; right: 30px; text-align:right; font-size:50px"""">N = 1</p>","D",0,NA,NA,0,"agree",17,19,19,17,19,"52","male","good","Very Strong Agreement","Strong Agreement","Strong Agreement","Very Strong Agreement","Strong Agreement","Very Strong Agreement","Strong Agreement","Strong Agreement","Very Strong Agreement","Strong Agreement","Strong Agreement","Strong Agreement","Very Strong Agreement","Strong Agreement","Strong Agreement","Strong Agreement","Strong Agreement","Strong Agreement"
"78","A153F5VZEWLJ6K:31QNSG6A5SZ7EAQAF2Y6G0GN89U87W","1",4,6,1,"5","<p style=""font-size:100px""><b>G</b></p><p style=""position: absolute; top: 30px; right: 30px; text-align:right; font-size:50px"""">N = 1</p>","G",0,73,119.100000023842,1,"agree",17,19,19,17,19,"52","male","good","Very Strong Agreement","Strong Agreement","Strong Agreement","Very Strong Agreement","Strong Agreement","Very Strong Agreement","Strong Agreement","Strong Agreement","Very Strong Agreement","Strong Agreement","Strong Agreement","Strong Agreement","Very Strong Agreement","Strong Agreement","Strong Agreement","Strong Agreement","Strong Agreement","Strong Agreement"
"79","A153F5VZEWLJ6K:31QNSG6A5SZ7EAQAF2Y6G0GN89U87W","1",4,7,1,"5","<p style=""font-size:100px""><b>G</b></p><p style=""position: absolute; top: 30px; right: 30px; text-align:right; font-size:50px"""">N = 1</p>","G",0,69,79.6999999880791,0,"agree",17,19,19,17,19,"52","male","good","Very Strong Agreement","Strong Agreement","Strong Agreement","Very Strong Agreement","Strong Agreement","Very Strong Agreement","Strong Agreement","Strong Agreement","Very Strong Agreement","Strong Agreement","Strong Agreement","Strong Agreement","Very Strong Agreement","Strong Agreement","Strong Agreement","Strong Agreement","Strong Agreement","Strong Agreement"
"80","A153F5VZEWLJ6K:31QNSG6A5SZ7EAQAF2Y6G0GN89U87W","1",4,8,1,"5","<p style=""font-size:100px""><b>G</b></p><p style=""position: absolute; top: 30px; right: 30px; text-align:right; font-size:50px"""">N = 1</p>","G",0,NA,NA,0,"agree",17,19,19,17,19,"52","male","good","Very Strong Agreement","Strong Agreement","Strong Agreement","Very Strong Agreement","Strong Agreement","Very Strong Agreement","Strong Agreement","Strong Agreement","Very Strong Agreement","Strong Agreement","Strong Agreement","Strong Agreement","Very Strong Agreement","Strong Agreement","Strong Agreement","Strong Agreement","Strong Agreement","Strong Agreement"
"81","A153F5VZEWLJ6K:31QNSG6A5SZ7EAQAF2Y6G0GN89U87W","1",4,9,1,"5","<p style=""font-size:100px""><b>V</b></p><p style=""position: absolute; top: 30px; right: 30px; text-align:right; font-size:50px"""">N = 1</p>","V",0,NA,NA,0,"agree",17,19,19,17,19,"52","male","good","Very Strong Agreement","Strong Agreement","Strong Agreement","Very Strong Agreement","Strong Agreement","Very Strong Agreement","Strong Agreement","Strong Agreement","Very Strong Agreement","Strong Agreement","Strong Agreement","Strong Agreement","Very Strong Agreement","Strong Agreement","Strong Agreement","Strong Agreement","Strong Agreement","Strong Agreement"
"82","A153F5VZEWLJ6K:31QNSG6A5SZ7EAQAF2Y6G0GN89U87W","1",4,10,1,"5","<p style=""font-size:100px""><b>V</b></p><p style=""position: absolute; top: 30px; right: 30px; text-align:right; font-size:50px"""">N = 1</p>","V",0,NA,NA,0,"agree",17,19,19,17,19,"52","male","good","Very Strong Agreement","Strong Agreement","Strong Agreement","Very Strong Agreement","Strong Agreement","Very Strong Agreement","Strong Agreement","Strong Agreement","Very Strong Agreement","Strong Agreement","Strong Agreement","Strong Agreement","Very Strong Agreement","Strong Agreement","Strong Agreement","Strong Agreement","Strong Agreement","Strong Agreement"
"83","A153F5VZEWLJ6K:31QNSG6A5SZ7EAQAF2Y6G0GN89U87W","1",4,11,1,"5","<p style=""font-size:100px""><b>t</b></p><p style=""position: absolute; top: 30px; right: 30px; text-align:right; font-size:50px"""">N = 1</p>","t",0,NA,NA,0,"agree",17,19,19,17,19,"52","male","good","Very Strong Agreement","Strong Agreement","Strong Agreement","Very Strong Agreement","Strong Agreement","Very Strong Agreement","Strong Agreement","Strong Agreement","Very Strong Agreement","Strong Agreement","Strong Agreement","Strong Agreement","Very Strong Agreement","Strong Agreement","Strong Agreement","Strong Agreement","Strong Agreement","Strong Agreement"
"84","A153F5VZEWLJ6K:31QNSG6A5SZ7EAQAF2Y6G0GN89U87W","1",4,12,1,"5","<p style=""font-size:100px""><b>d</b></p><p style=""position: absolute; top: 30px; right: 30px; text-align:right; font-size:50px"""">N = 1</p>","d",0,NA,NA,0,"agree",17,19,19,17,19,"52","male","good","Very Strong Agreement","Strong Agreement","Strong Agreement","Very Strong Agreement","Strong Agreement","Very Strong Agreement","Strong Agreement","Strong Agreement","Very Strong Agreement","Strong Agreement","Strong Agreement","Strong Agreement","Very Strong Agreement","Strong Agreement","Strong Agreement","Strong Agreement","Strong Agreement","Strong Agreement"
"85","A153F5VZEWLJ6K:31QNSG6A5SZ7EAQAF2Y6G0GN89U87W","1",5,1,2,"50","<p style=""font-size:100px""><b>D</b></p><p style=""position: absolute; top: 30px; right: 30px; text-align:right; font-size:50px"""">N = 2</p>","D",0,NA,NA,0,"agree",17,18,19,16,20,"52","male","good","Very Strong Agreement","Strong Agreement","Strong Agreement","Very Strong Agreement","Strong Agreement","Very Strong Agreement","Strong Agreement","Strong Agreement","Very Strong Agreement","Strong Agreement","Strong Agreement","Strong Agreement","Very Strong Agreement","Strong Agreement","Strong Agreement","Strong Agreement","Strong Agreement","Strong Agreement"
"86","A153F5VZEWLJ6K:31QNSG6A5SZ7EAQAF2Y6G0GN89U87W","1",5,2,2,"50","<p style=""font-size:100px""><b>G</b></p><p style=""position: absolute; top: 30px; right: 30px; text-align:right; font-size:50px"""">N = 2</p>","G",0,NA,NA,0,"agree",17,18,19,16,20,"52","male","good","Very Strong Agreement","Strong Agreement","Strong Agreement","Very Strong Agreement","Strong Agreement","Very Strong Agreement","Strong Agreement","Strong Agreement","Very Strong Agreement","Strong Agreement","Strong Agreement","Strong Agreement","Very Strong Agreement","Strong Agreement","Strong Agreement","Strong Agreement","Strong Agreement","Strong Agreement"
"87","A153F5VZEWLJ6K:31QNSG6A5SZ7EAQAF2Y6G0GN89U87W","1",5,3,2,"50","<p style=""font-size:100px""><b>D</b></p><p style=""position: absolute; top: 30px; right: 30px; text-align:right; font-size:50px"""">N = 2</p>","D",0,NA,NA,0,"agree",17,18,19,16,20,"52","male","good","Very Strong Agreement","Strong Agreement","Strong Agreement","Very Strong Agreement","Strong Agreement","Very Strong Agreement","Strong Agreement","Strong Agreement","Very Strong Agreement","Strong Agreement","Strong Agreement","Strong Agreement","Very Strong Agreement","Strong Agreement","Strong Agreement","Strong Agreement","Strong Agreement","Strong Agreement"
"88","A153F5VZEWLJ6K:31QNSG6A5SZ7EAQAF2Y6G0GN89U87W","1",5,4,2,"50","<p style=""font-size:100px""><b>d</b></p><p style=""position: absolute; top: 30px; right: 30px; text-align:right; font-size:50px"""">N = 2</p>","d",0,69,169,0,"agree",17,18,19,16,20,"52","male","good","Very Strong Agreement","Strong Agreement","Strong Agreement","Very Strong Agreement","Strong Agreement","Very Strong Agreement","Strong Agreement","Strong Agreement","Very Strong Agreement","Strong Agreement","Strong Agreement","Strong Agreement","Very Strong Agreement","Strong Agreement","Strong Agreement","Strong Agreement","Strong Agreement","Strong Agreement"
"89","A153F5VZEWLJ6K:31QNSG6A5SZ7EAQAF2Y6G0GN89U87W","1",5,5,2,"50","<p style=""font-size:100px""><b>B</b></p><p style=""position: absolute; top: 30px; right: 30px; text-align:right; font-size:50px"""">N = 2</p>","B",0,69,174.699999988079,0,"agree",17,18,19,16,20,"52","male","good","Very Strong Agreement","Strong Agreement","Strong Agreement","Very Strong Agreement","Strong Agreement","Very Strong Agreement","Strong Agreement","Strong Agreement","Very Strong Agreement","Strong Agreement","Strong Agreement","Strong Agreement","Very Strong Agreement","Strong Agreement","Strong Agreement","Strong Agreement","Strong Agreement","Strong Agreement"
"90","A153F5VZEWLJ6K:31QNSG6A5SZ7EAQAF2Y6G0GN89U87W","1",5,6,2,"50","<p style=""font-size:100px""><b>d</b></p><p style=""position: absolute; top: 30px; right: 30px; text-align:right; font-size:50px"""">N = 2</p>","d",0,73,786.900000035763,1,"agree",17,18,19,16,20,"52","male","good","Very Strong Agreement","Strong Agreement","Strong Agreement","Very Strong Agreement","Strong Agreement","Very Strong Agreement","Strong Agreement","Strong Agreement","Very Strong Agreement","Strong Agreement","Strong Agreement","Strong Agreement","Very Strong Agreement","Strong Agreement","Strong Agreement","Strong Agreement","Strong Agreement","Strong Agreement"
"91","A153F5VZEWLJ6K:31QNSG6A5SZ7EAQAF2Y6G0GN89U87W","1",5,7,2,"50","<p style=""font-size:100px""><b>G</b></p><p style=""position: absolute; top: 30px; right: 30px; text-align:right; font-size:50px"""">N = 2</p>","G",0,73,319.699999988079,1,"agree",17,18,19,16,20,"52","male","good","Very Strong Agreement","Strong Agreement","Strong Agreement","Very Strong Agreement","Strong Agreement","Very Strong Agreement","Strong Agreement","Strong Agreement","Very Strong Agreement","Strong Agreement","Strong Agreement","Strong Agreement","Very Strong Agreement","Strong Agreement","Strong Agreement","Strong Agreement","Strong Agreement","Strong Agreement"
"92","A153F5VZEWLJ6K:31QNSG6A5SZ7EAQAF2Y6G0GN89U87W","1",5,8,2,"50","<p style=""font-size:100px""><b>p</b></p><p style=""position: absolute; top: 30px; right: 30px; text-align:right; font-size:50px"""">N = 2</p>","p",0,73,218.399999976158,1,"agree",17,18,19,16,20,"52","male","good","Very Strong Agreement","Strong Agreement","Strong Agreement","Very Strong Agreement","Strong Agreement","Very Strong Agreement","Strong Agreement","Strong Agreement","Very Strong Agreement","Strong Agreement","Strong Agreement","Strong Agreement","Very Strong Agreement","Strong Agreement","Strong Agreement","Strong Agreement","Strong Agreement","Strong Agreement"
"93","A153F5VZEWLJ6K:31QNSG6A5SZ7EAQAF2Y6G0GN89U87W","1",5,9,2,"50","<p style=""font-size:100px""><b>V</b></p><p style=""position: absolute; top: 30px; right: 30px; text-align:right; font-size:50px"""">N = 2</p>","V",0,73,269.600000023842,1,"agree",17,18,19,16,20,"52","male","good","Very Strong Agreement","Strong Agreement","Strong Agreement","Very Strong Agreement","Strong Agreement","Very Strong Agreement","Strong Agreement","Strong Agreement","Very Strong Agreement","Strong Agreement","Strong Agreement","Strong Agreement","Very Strong Agreement","Strong Agreement","Strong Agreement","Strong Agreement","Strong Agreement","Strong Agreement"
"94","A153F5VZEWLJ6K:31QNSG6A5SZ7EAQAF2Y6G0GN89U87W","1",5,10,2,"50","<p style=""font-size:100px""><b>p</b></p><p style=""position: absolute; top: 30px; right: 30px; text-align:right; font-size:50px"""">N = 2</p>","p",0,69,159.100000023842,0,"agree",17,18,19,16,20,"52","male","good","Very Strong Agreement","Strong Agreement","Strong Agreement","Very Strong Agreement","Strong Agreement","Very Strong Agreement","Strong Agreement","Strong Agreement","Very Strong Agreement","Strong Agreement","Strong Agreement","Strong Agreement","Very Strong Agreement","Strong Agreement","Strong Agreement","Strong Agreement","Strong Agreement","Strong Agreement"
"95","A153F5VZEWLJ6K:31QNSG6A5SZ7EAQAF2Y6G0GN89U87W","1",5,11,2,"50","<p style=""font-size:100px""><b>V</b></p><p style=""position: absolute; top: 30px; right: 30px; text-align:right; font-size:50px"""">N = 2</p>","V",0,69,119.400000035763,0,"agree",17,18,19,16,20,"52","male","good","Very Strong Agreement","Strong Agreement","Strong Agreement","Very Strong Agreement","Strong Agreement","Very Strong Agreement","Strong Agreement","Strong Agreement","Very Strong Agreement","Strong Agreement","Strong Agreement","Strong Agreement","Very Strong Agreement","Strong Agreement","Strong Agreement","Strong Agreement","Strong Agreement","Strong Agreement"
"96","A153F5VZEWLJ6K:31QNSG6A5SZ7EAQAF2Y6G0GN89U87W","1",5,12,2,"50","<p style=""font-size:100px""><b>g</b></p><p style=""position: absolute; top: 30px; right: 30px; text-align:right; font-size:50px"""">N = 2</p>","g",0,73,228.900000035763,1,"agree",17,18,19,16,20,"52","male","good","Very Strong Agreement","Strong Agreement","Strong Agreement","Very Strong Agreement","Strong Agreement","Very Strong Agreement","Strong Agreement","Strong Agreement","Very Strong Agreement","Strong Agreement","Strong Agreement","Strong Agreement","Very Strong Agreement","Strong Agreement","Strong Agreement","Strong Agreement","Strong Agreement","Strong Agreement"
"97","A153F5VZEWLJ6K:31QNSG6A5SZ7EAQAF2Y6G0GN89U87W","1",6,1,3,"50","<p style=""font-size:100px""><b>D</b></p><p style=""position: absolute; top: 30px; right: 30px; text-align:right; font-size:50px"""">N = 3</p>","D",0,NA,NA,0,"agree",17,18,19,17,18,"52","male","good","Very Strong Agreement","Strong Agreement","Strong Agreement","Very Strong Agreement","Strong Agreement","Very Strong Agreement","Strong Agreement","Strong Agreement","Very Strong Agreement","Strong Agreement","Strong Agreement","Strong Agreement","Very Strong Agreement","Strong Agreement","Strong Agreement","Strong Agreement","Strong Agreement","Strong Agreement"
"98","A153F5VZEWLJ6K:31QNSG6A5SZ7EAQAF2Y6G0GN89U87W","1",6,2,3,"50","<p style=""font-size:100px""><b>b</b></p><p style=""position: absolute; top: 30px; right: 30px; text-align:right; font-size:50px"""">N = 3</p>","b",0,NA,NA,0,"agree",17,18,19,17,18,"52","male","good","Very Strong Agreement","Strong Agreement","Strong Agreement","Very Strong Agreement","Strong Agreement","Very Strong Agreement","Strong Agreement","Strong Agreement","Very Strong Agreement","Strong Agreement","Strong Agreement","Strong Agreement","Very Strong Agreement","Strong Agreement","Strong Agreement","Strong Agreement","Strong Agreement","Strong Agreement"
"99","A153F5VZEWLJ6K:31QNSG6A5SZ7EAQAF2Y6G0GN89U87W","1",6,3,3,"50","<p style=""font-size:100px""><b>v</b></p><p style=""position: absolute; top: 30px; right: 30px; text-align:right; font-size:50px"""">N = 3</p>","v",0,NA,NA,0,"agree",17,18,19,17,18,"52","male","good","Very Strong Agreement","Strong Agreement","Strong Agreement","Very Strong Agreement","Strong Agreement","Very Strong Agreement","Strong Agreement","Strong Agreement","Very Strong Agreement","Strong Agreement","Strong Agreement","Strong Agreement","Very Strong Agreement","Strong Agreement","Strong Agreement","Strong Agreement","Strong Agreement","Strong Agreement"
"100","A153F5VZEWLJ6K:31QNSG6A5SZ7EAQAF2Y6G0GN89U87W","1",6,4,3,"50","<p style=""font-size:100px""><b>P</b></p><p style=""position: absolute; top: 30px; right: 30px; text-align:right; font-size:50px"""">N = 3</p>","P",0,NA,NA,0,"agree",17,18,19,17,18,"52","male","good","Very Strong Agreement","Strong Agreement","Strong Agreement","Very Strong Agreement","Strong Agreement","Very Strong Agreement","Strong Agreement","Strong Agreement","Very Strong Agreement","Strong Agreement","Strong Agreement","Strong Agreement","Very Strong Agreement","Strong Agreement","Strong Agreement","Strong Agreement","Strong Agreement","Strong Agreement"
"101","A153F5VZEWLJ6K:31QNSG6A5SZ7EAQAF2Y6G0GN89U87W","1",6,5,3,"50","<p style=""font-size:100px""><b>b</b></p><p style=""position: absolute; top: 30px; right: 30px; text-align:right; font-size:50px"""">N = 3</p>","b",0,NA,NA,0,"agree",17,18,19,17,18,"52","male","good","Very Strong Agreement","Strong Agreement","Strong Agreement","Very Strong Agreement","Strong Agreement","Very Strong Agreement","Strong Agreement","Strong Agreement","Very Strong Agreement","Strong Agreement","Strong Agreement","Strong Agreement","Very Strong Agreement","Strong Agreement","Strong Agreement","Strong Agreement","Strong Agreement","Strong Agreement"
"102","A153F5VZEWLJ6K:31QNSG6A5SZ7EAQAF2Y6G0GN89U87W","1",6,6,3,"50","<p style=""font-size:100px""><b>B</b></p><p style=""position: absolute; top: 30px; right: 30px; text-align:right; font-size:50px"""">N = 3</p>","B",0,NA,NA,0,"agree",17,18,19,17,18,"52","male","good","Very Strong Agreement","Strong Agreement","Strong Agreement","Very Strong Agreement","Strong Agreement","Very Strong Agreement","Strong Agreement","Strong Agreement","Very Strong Agreement","Strong Agreement","Strong Agreement","Strong Agreement","Very Strong Agreement","Strong Agreement","Strong Agreement","Strong Agreement","Strong Agreement","Strong Agreement"
"103","A153F5VZEWLJ6K:31QNSG6A5SZ7EAQAF2Y6G0GN89U87W","1",6,7,3,"50","<p style=""font-size:100px""><b>t</b></p><p style=""position: absolute; top: 30px; right: 30px; text-align:right; font-size:50px"""">N = 3</p>","t",0,NA,NA,0,"agree",17,18,19,17,18,"52","male","good","Very Strong Agreement","Strong Agreement","Strong Agreement","Very Strong Agreement","Strong Agreement","Very Strong Agreement","Strong Agreement","Strong Agreement","Very Strong Agreement","Strong Agreement","Strong Agreement","Strong Agreement","Very Strong Agreement","Strong Agreement","Strong Agreement","Strong Agreement","Strong Agreement","Strong Agreement"
"104","A153F5VZEWLJ6K:31QNSG6A5SZ7EAQAF2Y6G0GN89U87W","1",6,8,3,"50","<p style=""font-size:100px""><b>b</b></p><p style=""position: absolute; top: 30px; right: 30px; text-align:right; font-size:50px"""">N = 3</p>","b",0,69,253.899999976158,0,"agree",17,18,19,17,18,"52","male","good","Very Strong Agreement","Strong Agreement","Strong Agreement","Very Strong Agreement","Strong Agreement","Very Strong Agreement","Strong Agreement","Strong Agreement","Very Strong Agreement","Strong Agreement","Strong Agreement","Strong Agreement","Very Strong Agreement","Strong Agreement","Strong Agreement","Strong Agreement","Strong Agreement","Strong Agreement"
"105","A153F5VZEWLJ6K:31QNSG6A5SZ7EAQAF2Y6G0GN89U87W","1",6,9,3,"50","<p style=""font-size:100px""><b>D</b></p><p style=""position: absolute; top: 30px; right: 30px; text-align:right; font-size:50px"""">N = 3</p>","D",0,NA,NA,0,"agree",17,18,19,17,18,"52","male","good","Very Strong Agreement","Strong Agreement","Strong Agreement","Very Strong Agreement","Strong Agreement","Very Strong Agreement","Strong Agreement","Strong Agreement","Very Strong Agreement","Strong Agreement","Strong Agreement","Strong Agreement","Very Strong Agreement","Strong Agreement","Strong Agreement","Strong Agreement","Strong Agreement","Strong Agreement"
"106","A153F5VZEWLJ6K:31QNSG6A5SZ7EAQAF2Y6G0GN89U87W","1",6,10,3,"50","<p style=""font-size:100px""><b>G</b></p><p style=""position: absolute; top: 30px; right: 30px; text-align:right; font-size:50px"""">N = 3</p>","G",0,NA,NA,0,"agree",17,18,19,17,18,"52","male","good","Very Strong Agreement","Strong Agreement","Strong Agreement","Very Strong Agreement","Strong Agreement","Very Strong Agreement","Strong Agreement","Strong Agreement","Very Strong Agreement","Strong Agreement","Strong Agreement","Strong Agreement","Very Strong Agreement","Strong Agreement","Strong Agreement","Strong Agreement","Strong Agreement","Strong Agreement"
"107","A153F5VZEWLJ6K:31QNSG6A5SZ7EAQAF2Y6G0GN89U87W","1",6,11,3,"50","<p style=""font-size:100px""><b>b</b></p><p style=""position: absolute; top: 30px; right: 30px; text-align:right; font-size:50px"""">N = 3</p>","b",0,NA,NA,0,"agree",17,18,19,17,18,"52","male","good","Very Strong Agreement","Strong Agreement","Strong Agreement","Very Strong Agreement","Strong Agreement","Very Strong Agreement","Strong Agreement","Strong Agreement","Very Strong Agreement","Strong Agreement","Strong Agreement","Strong Agreement","Very Strong Agreement","Strong Agreement","Strong Agreement","Strong Agreement","Strong Agreement","Strong Agreement"
"108","A153F5VZEWLJ6K:31QNSG6A5SZ7EAQAF2Y6G0GN89U87W","1",6,12,3,"50","<p style=""font-size:100px""><b>D</b></p><p style=""position: absolute; top: 30px; right: 30px; text-align:right; font-size:50px"""">N = 3</p>","D",0,69,148.800000011921,0,"agree",17,18,19,17,18,"52","male","good","Very Strong Agreement","Strong Agreement","Strong Agreement","Very Strong Agreement","Strong Agreement","Very Strong Agreement","Strong Agreement","Strong Agreement","Very Strong Agreement","Strong Agreement","Strong Agreement","Strong Agreement","Very Strong Agreement","Strong Agreement","Strong Agreement","Strong Agreement","Strong Agreement","Strong Agreement"
"109","A153F5VZEWLJ6K:31QNSG6A5SZ7EAQAF2Y6G0GN89U87W","2",7,1,1,"50","<p style=""font-size:100px""><b>p</b></p><p style=""position: absolute; top: 30px; right: 30px; text-align:right; font-size:50px"""">N = 1</p>","p",0,NA,NA,0,"agree",16,18,18,16,19,"52","male","good","Very Strong Agreement","Strong Agreement","Strong Agreement","Very Strong Agreement","Strong Agreement","Very Strong Agreement","Strong Agreement","Strong Agreement","Very Strong Agreement","Strong Agreement","Strong Agreement","Strong Agreement","Very Strong Agreement","Strong Agreement","Strong Agreement","Strong Agreement","Strong Agreement","Strong Agreement"
"110","A153F5VZEWLJ6K:31QNSG6A5SZ7EAQAF2Y6G0GN89U87W","2",7,2,1,"50","<p style=""font-size:100px""><b>d</b></p><p style=""position: absolute; top: 30px; right: 30px; text-align:right; font-size:50px"""">N = 1</p>","d",0,69,189.399999976158,0,"agree",16,18,18,16,19,"52","male","good","Very Strong Agreement","Strong Agreement","Strong Agreement","Very Strong Agreement","Strong Agreement","Very Strong Agreement","Strong Agreement","Strong Agreement","Very Strong Agreement","Strong Agreement","Strong Agreement","Strong Agreement","Very Strong Agreement","Strong Agreement","Strong Agreement","Strong Agreement","Strong Agreement","Strong Agreement"
"111","A153F5VZEWLJ6K:31QNSG6A5SZ7EAQAF2Y6G0GN89U87W","2",7,3,1,"50","<p style=""font-size:100px""><b>p</b></p><p style=""position: absolute; top: 30px; right: 30px; text-align:right; font-size:50px"""">N = 1</p>","p",0,69,148.699999988079,0,"agree",16,18,18,16,19,"52","male","good","Very Strong Agreement","Strong Agreement","Strong Agreement","Very Strong Agreement","Strong Agreement","Very Strong Agreement","Strong Agreement","Strong Agreement","Very Strong Agreement","Strong Agreement","Strong Agreement","Strong Agreement","Very Strong Agreement","Strong Agreement","Strong Agreement","Strong Agreement","Strong Agreement","Strong Agreement"
"112","A153F5VZEWLJ6K:31QNSG6A5SZ7EAQAF2Y6G0GN89U87W","2",7,4,1,"50","<p style=""font-size:100px""><b>v</b></p><p style=""position: absolute; top: 30px; right: 30px; text-align:right; font-size:50px"""">N = 1</p>","v",0,69,119.099999964237,0,"agree",16,18,18,16,19,"52","male","good","Very Strong Agreement","Strong Agreement","Strong Agreement","Very Strong Agreement","Strong Agreement","Very Strong Agreement","Strong Agreement","Strong Agreement","Very Strong Agreement","Strong Agreement","Strong Agreement","Strong Agreement","Very Strong Agreement","Strong Agreement","Strong Agreement","Strong Agreement","Strong Agreement","Strong Agreement"
"113","A153F5VZEWLJ6K:31QNSG6A5SZ7EAQAF2Y6G0GN89U87W","2",7,5,1,"50","<p style=""font-size:100px""><b>v</b></p><p style=""position: absolute; top: 30px; right: 30px; text-align:right; font-size:50px"""">N = 1</p>","v",0,69,39,0,"agree",16,18,18,16,19,"52","male","good","Very Strong Agreement","Strong Agreement","Strong Agreement","Very Strong Agreement","Strong Agreement","Very Strong Agreement","Strong Agreement","Strong Agreement","Very Strong Agreement","Strong Agreement","Strong Agreement","Strong Agreement","Very Strong Agreement","Strong Agreement","Strong Agreement","Strong Agreement","Strong Agreement","Strong Agreement"
"114","A153F5VZEWLJ6K:31QNSG6A5SZ7EAQAF2Y6G0GN89U87W","2",7,6,1,"50","<p style=""font-size:100px""><b>G</b></p><p style=""position: absolute; top: 30px; right: 30px; text-align:right; font-size:50px"""">N = 1</p>","G",0,NA,NA,0,"agree",16,18,18,16,19,"52","male","good","Very Strong Agreement","Strong Agreement","Strong Agreement","Very Strong Agreement","Strong Agreement","Very Strong Agreement","Strong Agreement","Strong Agreement","Very Strong Agreement","Strong Agreement","Strong Agreement","Strong Agreement","Very Strong Agreement","Strong Agreement","Strong Agreement","Strong Agreement","Strong Agreement","Strong Agreement"
"115","A153F5VZEWLJ6K:31QNSG6A5SZ7EAQAF2Y6G0GN89U87W","2",7,7,1,"50","<p style=""font-size:100px""><b>t</b></p><p style=""position: absolute; top: 30px; right: 30px; text-align:right; font-size:50px"""">N = 1</p>","t",0,69,168.699999988079,0,"agree",16,18,18,16,19,"52","male","good","Very Strong Agreement","Strong Agreement","Strong Agreement","Very Strong Agreement","Strong Agreement","Very Strong Agreement","Strong Agreement","Strong Agreement","Very Strong Agreement","Strong Agreement","Strong Agreement","Strong Agreement","Very Strong Agreement","Strong Agreement","Strong Agreement","Strong Agreement","Strong Agreement","Strong Agreement"
"116","A153F5VZEWLJ6K:31QNSG6A5SZ7EAQAF2Y6G0GN89U87W","2",7,8,1,"50","<p style=""font-size:100px""><b>g</b></p><p style=""position: absolute; top: 30px; right: 30px; text-align:right; font-size:50px"""">N = 1</p>","g",0,NA,NA,0,"agree",16,18,18,16,19,"52","male","good","Very Strong Agreement","Strong Agreement","Strong Agreement","Very Strong Agreement","Strong Agreement","Very Strong Agreement","Strong Agreement","Strong Agreement","Very Strong Agreement","Strong Agreement","Strong Agreement","Strong Agreement","Very Strong Agreement","Strong Agreement","Strong Agreement","Strong Agreement","Strong Agreement","Strong Agreement"
"117","A153F5VZEWLJ6K:31QNSG6A5SZ7EAQAF2Y6G0GN89U87W","2",7,9,1,"50","<p style=""font-size:100px""><b>g</b></p><p style=""position: absolute; top: 30px; right: 30px; text-align:right; font-size:50px"""">N = 1</p>","g",0,73,6.70000004768372,1,"agree",16,18,18,16,19,"52","male","good","Very Strong Agreement","Strong Agreement","Strong Agreement","Very Strong Agreement","Strong Agreement","Very Strong Agreement","Strong Agreement","Strong Agreement","Very Strong Agreement","Strong Agreement","Strong Agreement","Strong Agreement","Very Strong Agreement","Strong Agreement","Strong Agreement","Strong Agreement","Strong Agreement","Strong Agreement"
"118","A153F5VZEWLJ6K:31QNSG6A5SZ7EAQAF2Y6G0GN89U87W","2",7,10,1,"50","<p style=""font-size:100px""><b>P</b></p><p style=""position: absolute; top: 30px; right: 30px; text-align:right; font-size:50px"""">N = 1</p>","P",0,69,139,0,"agree",16,18,18,16,19,"52","male","good","Very Strong Agreement","Strong Agreement","Strong Agreement","Very Strong Agreement","Strong Agreement","Very Strong Agreement","Strong Agreement","Strong Agreement","Very Strong Agreement","Strong Agreement","Strong Agreement","Strong Agreement","Very Strong Agreement","Strong Agreement","Strong Agreement","Strong Agreement","Strong Agreement","Strong Agreement"
"119","A153F5VZEWLJ6K:31QNSG6A5SZ7EAQAF2Y6G0GN89U87W","2",7,11,1,"50","<p style=""font-size:100px""><b>P</b></p><p style=""position: absolute; top: 30px; right: 30px; text-align:right; font-size:50px"""">N = 1</p>","P",0,73,138.800000011921,1,"agree",16,18,18,16,19,"52","male","good","Very Strong Agreement","Strong Agreement","Strong Agreement","Very Strong Agreement","Strong Agreement","Very Strong Agreement","Strong Agreement","Strong Agreement","Very Strong Agreement","Strong Agreement","Strong Agreement","Strong Agreement","Very Strong Agreement","Strong Agreement","Strong Agreement","Strong Agreement","Strong Agreement","Strong Agreement"
"120","A153F5VZEWLJ6K:31QNSG6A5SZ7EAQAF2Y6G0GN89U87W","2",7,12,1,"50","<p style=""font-size:100px""><b>P</b></p><p style=""position: absolute; top: 30px; right: 30px; text-align:right; font-size:50px"""">N = 1</p>","P",0,73,179.200000047684,1,"agree",16,18,18,16,19,"52","male","good","Very Strong Agreement","Strong Agreement","Strong Agreement","Very Strong Agreement","Strong Agreement","Very Strong Agreement","Strong Agreement","Strong Agreement","Very Strong Agreement","Strong Agreement","Strong Agreement","Strong Agreement","Very Strong Agreement","Strong Agreement","Strong Agreement","Strong Agreement","Strong Agreement","Strong Agreement"
"121","A153F5VZEWLJ6K:31QNSG6A5SZ7EAQAF2Y6G0GN89U87W","2",8,1,3,"50","<p style=""font-size:100px""><b>P</b></p><p style=""position: absolute; top: 30px; right: 30px; text-align:right; font-size:50px"""">N = 3</p>","P",0,NA,NA,0,"agree",16,18,20,17,18,"52","male","good","Very Strong Agreement","Strong Agreement","Strong Agreement","Very Strong Agreement","Strong Agreement","Very Strong Agreement","Strong Agreement","Strong Agreement","Very Strong Agreement","Strong Agreement","Strong Agreement","Strong Agreement","Very Strong Agreement","Strong Agreement","Strong Agreement","Strong Agreement","Strong Agreement","Strong Agreement"
"122","A153F5VZEWLJ6K:31QNSG6A5SZ7EAQAF2Y6G0GN89U87W","2",8,2,3,"50","<p style=""font-size:100px""><b>B</b></p><p style=""position: absolute; top: 30px; right: 30px; text-align:right; font-size:50px"""">N = 3</p>","B",0,69,148.199999988079,0,"agree",16,18,20,17,18,"52","male","good","Very Strong Agreement","Strong Agreement","Strong Agreement","Very Strong Agreement","Strong Agreement","Very Strong Agreement","Strong Agreement","Strong Agreement","Very Strong Agreement","Strong Agreement","Strong Agreement","Strong Agreement","Very Strong Agreement","Strong Agreement","Strong Agreement","Strong Agreement","Strong Agreement","Strong Agreement"
"123","A153F5VZEWLJ6K:31QNSG6A5SZ7EAQAF2Y6G0GN89U87W","2",8,3,3,"50","<p style=""font-size:100px""><b>g</b></p><p style=""position: absolute; top: 30px; right: 30px; text-align:right; font-size:50px"""">N = 3</p>","g",0,69,37.3999999761581,0,"agree",16,18,20,17,18,"52","male","good","Very Strong Agreement","Strong Agreement","Strong Agreement","Very Strong Agreement","Strong Agreement","Very Strong Agreement","Strong Agreement","Strong Agreement","Very Strong Agreement","Strong Agreement","Strong Agreement","Strong Agreement","Very Strong Agreement","Strong Agreement","Strong Agreement","Strong Agreement","Strong Agreement","Strong Agreement"
"124","A153F5VZEWLJ6K:31QNSG6A5SZ7EAQAF2Y6G0GN89U87W","2",8,4,3,"50","<p style=""font-size:100px""><b>P</b></p><p style=""position: absolute; top: 30px; right: 30px; text-align:right; font-size:50px"""">N = 3</p>","P",0,NA,NA,0,"agree",16,18,20,17,18,"52","male","good","Very Strong Agreement","Strong Agreement","Strong Agreement","Very Strong Agreement","Strong Agreement","Very Strong Agreement","Strong Agreement","Strong Agreement","Very Strong Agreement","Strong Agreement","Strong Agreement","Strong Agreement","Very Strong Agreement","Strong Agreement","Strong Agreement","Strong Agreement","Strong Agreement","Strong Agreement"
"125","A153F5VZEWLJ6K:31QNSG6A5SZ7EAQAF2Y6G0GN89U87W","2",8,5,3,"50","<p style=""font-size:100px""><b>V</b></p><p style=""position: absolute; top: 30px; right: 30px; text-align:right; font-size:50px"""">N = 3</p>","V",0,NA,NA,0,"agree",16,18,20,17,18,"52","male","good","Very Strong Agreement","Strong Agreement","Strong Agreement","Very Strong Agreement","Strong Agreement","Very Strong Agreement","Strong Agreement","Strong Agreement","Very Strong Agreement","Strong Agreement","Strong Agreement","Strong Agreement","Very Strong Agreement","Strong Agreement","Strong Agreement","Strong Agreement","Strong Agreement","Strong Agreement"
"126","A153F5VZEWLJ6K:31QNSG6A5SZ7EAQAF2Y6G0GN89U87W","2",8,6,3,"50","<p style=""font-size:100px""><b>v</b></p><p style=""position: absolute; top: 30px; right: 30px; text-align:right; font-size:50px"""">N = 3</p>","v",0,NA,NA,0,"agree",16,18,20,17,18,"52","male","good","Very Strong Agreement","Strong Agreement","Strong Agreement","Very Strong Agreement","Strong Agreement","Very Strong Agreement","Strong Agreement","Strong Agreement","Very Strong Agreement","Strong Agreement","Strong Agreement","Strong Agreement","Very Strong Agreement","Strong Agreement","Strong Agreement","Strong Agreement","Strong Agreement","Strong Agreement"
"127","A153F5VZEWLJ6K:31QNSG6A5SZ7EAQAF2Y6G0GN89U87W","2",8,7,3,"50","<p style=""font-size:100px""><b>P</b></p><p style=""position: absolute; top: 30px; right: 30px; text-align:right; font-size:50px"""">N = 3</p>","P",0,NA,NA,0,"agree",16,18,20,17,18,"52","male","good","Very Strong Agreement","Strong Agreement","Strong Agreement","Very Strong Agreement","Strong Agreement","Very Strong Agreement","Strong Agreement","Strong Agreement","Very Strong Agreement","Strong Agreement","Strong Agreement","Strong Agreement","Very Strong Agreement","Strong Agreement","Strong Agreement","Strong Agreement","Strong Agreement","Strong Agreement"
"128","A153F5VZEWLJ6K:31QNSG6A5SZ7EAQAF2Y6G0GN89U87W","2",8,8,3,"50","<p style=""font-size:100px""><b>d</b></p><p style=""position: absolute; top: 30px; right: 30px; text-align:right; font-size:50px"""">N = 3</p>","d",0,73,144.799999952316,1,"agree",16,18,20,17,18,"52","male","good","Very Strong Agreement","Strong Agreement","Strong Agreement","Very Strong Agreement","Strong Agreement","Very Strong Agreement","Strong Agreement","Strong Agreement","Very Strong Agreement","Strong Agreement","Strong Agreement","Strong Agreement","Very Strong Agreement","Strong Agreement","Strong Agreement","Strong Agreement","Strong Agreement","Strong Agreement"
"129","A153F5VZEWLJ6K:31QNSG6A5SZ7EAQAF2Y6G0GN89U87W","2",8,9,3,"50","<p style=""font-size:100px""><b>b</b></p><p style=""position: absolute; top: 30px; right: 30px; text-align:right; font-size:50px"""">N = 3</p>","b",0,69,9.30000001192093,0,"agree",16,18,20,17,18,"52","male","good","Very Strong Agreement","Strong Agreement","Strong Agreement","Very Strong Agreement","Strong Agreement","Very Strong Agreement","Strong Agreement","Strong Agreement","Very Strong Agreement","Strong Agreement","Strong Agreement","Strong Agreement","Very Strong Agreement","Strong Agreement","Strong Agreement","Strong Agreement","Strong Agreement","Strong Agreement"
"130","A153F5VZEWLJ6K:31QNSG6A5SZ7EAQAF2Y6G0GN89U87W","2",8,10,3,"50","<p style=""font-size:100px""><b>b</b></p><p style=""position: absolute; top: 30px; right: 30px; text-align:right; font-size:50px"""">N = 3</p>","b",0,73,209.699999988079,1,"agree",16,18,20,17,18,"52","male","good","Very Strong Agreement","Strong Agreement","Strong Agreement","Very Strong Agreement","Strong Agreement","Very Strong Agreement","Strong Agreement","Strong Agreement","Very Strong Agreement","Strong Agreement","Strong Agreement","Strong Agreement","Very Strong Agreement","Strong Agreement","Strong Agreement","Strong Agreement","Strong Agreement","Strong Agreement"
"131","A153F5VZEWLJ6K:31QNSG6A5SZ7EAQAF2Y6G0GN89U87W","2",8,11,3,"50","<p style=""font-size:100px""><b>d</b></p><p style=""position: absolute; top: 30px; right: 30px; text-align:right; font-size:50px"""">N = 3</p>","d",0,73,923.899999976158,1,"agree",16,18,20,17,18,"52","male","good","Very Strong Agreement","Strong Agreement","Strong Agreement","Very Strong Agreement","Strong Agreement","Very Strong Agreement","Strong Agreement","Strong Agreement","Very Strong Agreement","Strong Agreement","Strong Agreement","Strong Agreement","Very Strong Agreement","Strong Agreement","Strong Agreement","Strong Agreement","Strong Agreement","Strong Agreement"
"132","A153F5VZEWLJ6K:31QNSG6A5SZ7EAQAF2Y6G0GN89U87W","2",8,12,3,"50","<p style=""font-size:100px""><b>b</b></p><p style=""position: absolute; top: 30px; right: 30px; text-align:right; font-size:50px"""">N = 3</p>","b",0,73,116.800000011921,1,"agree",16,18,20,17,18,"52","male","good","Very Strong Agreement","Strong Agreement","Strong Agreement","Very Strong Agreement","Strong Agreement","Very Strong Agreement","Strong Agreement","Strong Agreement","Very Strong Agreement","Strong Agreement","Strong Agreement","Strong Agreement","Very Strong Agreement","Strong Agreement","Strong Agreement","Strong Agreement","Strong Agreement","Strong Agreement"
"133","A153F5VZEWLJ6K:31QNSG6A5SZ7EAQAF2Y6G0GN89U87W","2",9,1,3,"5","<p style=""font-size:100px""><b>B</b></p><p style=""position: absolute; top: 30px; right: 30px; text-align:right; font-size:50px"""">N = 3</p>","B",0,NA,NA,0,"agree",18,19,16,18,17,"52","male","good","Very Strong Agreement","Strong Agreement","Strong Agreement","Very Strong Agreement","Strong Agreement","Very Strong Agreement","Strong Agreement","Strong Agreement","Very Strong Agreement","Strong Agreement","Strong Agreement","Strong Agreement","Very Strong Agreement","Strong Agreement","Strong Agreement","Strong Agreement","Strong Agreement","Strong Agreement"
"134","A153F5VZEWLJ6K:31QNSG6A5SZ7EAQAF2Y6G0GN89U87W","2",9,2,3,"5","<p style=""font-size:100px""><b>D</b></p><p style=""position: absolute; top: 30px; right: 30px; text-align:right; font-size:50px"""">N = 3</p>","D",0,NA,NA,0,"agree",18,19,16,18,17,"52","male","good","Very Strong Agreement","Strong Agreement","Strong Agreement","Very Strong Agreement","Strong Agreement","Very Strong Agreement","Strong Agreement","Strong Agreement","Very Strong Agreement","Strong Agreement","Strong Agreement","Strong Agreement","Very Strong Agreement","Strong Agreement","Strong Agreement","Strong Agreement","Strong Agreement","Strong Agreement"
"135","A153F5VZEWLJ6K:31QNSG6A5SZ7EAQAF2Y6G0GN89U87W","2",9,3,3,"5","<p style=""font-size:100px""><b>t</b></p><p style=""position: absolute; top: 30px; right: 30px; text-align:right; font-size:50px"""">N = 3</p>","t",0,NA,NA,0,"agree",18,19,16,18,17,"52","male","good","Very Strong Agreement","Strong Agreement","Strong Agreement","Very Strong Agreement","Strong Agreement","Very Strong Agreement","Strong Agreement","Strong Agreement","Very Strong Agreement","Strong Agreement","Strong Agreement","Strong Agreement","Very Strong Agreement","Strong Agreement","Strong Agreement","Strong Agreement","Strong Agreement","Strong Agreement"
"136","A153F5VZEWLJ6K:31QNSG6A5SZ7EAQAF2Y6G0GN89U87W","2",9,4,3,"5","<p style=""font-size:100px""><b>t</b></p><p style=""position: absolute; top: 30px; right: 30px; text-align:right; font-size:50px"""">N = 3</p>","t",0,NA,NA,0,"agree",18,19,16,18,17,"52","male","good","Very Strong Agreement","Strong Agreement","Strong Agreement","Very Strong Agreement","Strong Agreement","Very Strong Agreement","Strong Agreement","Strong Agreement","Very Strong Agreement","Strong Agreement","Strong Agreement","Strong Agreement","Very Strong Agreement","Strong Agreement","Strong Agreement","Strong Agreement","Strong Agreement","Strong Agreement"
"137","A153F5VZEWLJ6K:31QNSG6A5SZ7EAQAF2Y6G0GN89U87W","2",9,5,3,"5","<p style=""font-size:100px""><b>P</b></p><p style=""position: absolute; top: 30px; right: 30px; text-align:right; font-size:50px"""">N = 3</p>","P",0,NA,NA,0,"agree",18,19,16,18,17,"52","male","good","Very Strong Agreement","Strong Agreement","Strong Agreement","Very Strong Agreement","Strong Agreement","Very Strong Agreement","Strong Agreement","Strong Agreement","Very Strong Agreement","Strong Agreement","Strong Agreement","Strong Agreement","Very Strong Agreement","Strong Agreement","Strong Agreement","Strong Agreement","Strong Agreement","Strong Agreement"
"138","A153F5VZEWLJ6K:31QNSG6A5SZ7EAQAF2Y6G0GN89U87W","2",9,6,3,"5","<p style=""font-size:100px""><b>t</b></p><p style=""position: absolute; top: 30px; right: 30px; text-align:right; font-size:50px"""">N = 3</p>","t",0,NA,NA,0,"agree",18,19,16,18,17,"52","male","good","Very Strong Agreement","Strong Agreement","Strong Agreement","Very Strong Agreement","Strong Agreement","Very Strong Agreement","Strong Agreement","Strong Agreement","Very Strong Agreement","Strong Agreement","Strong Agreement","Strong Agreement","Very Strong Agreement","Strong Agreement","Strong Agreement","Strong Agreement","Strong Agreement","Strong Agreement"
"139","A153F5VZEWLJ6K:31QNSG6A5SZ7EAQAF2Y6G0GN89U87W","2",9,7,3,"5","<p style=""font-size:100px""><b>v</b></p><p style=""position: absolute; top: 30px; right: 30px; text-align:right; font-size:50px"""">N = 3</p>","v",0,NA,NA,0,"agree",18,19,16,18,17,"52","male","good","Very Strong Agreement","Strong Agreement","Strong Agreement","Very Strong Agreement","Strong Agreement","Very Strong Agreement","Strong Agreement","Strong Agreement","Very Strong Agreement","Strong Agreement","Strong Agreement","Strong Agreement","Very Strong Agreement","Strong Agreement","Strong Agreement","Strong Agreement","Strong Agreement","Strong Agreement"
"140","A153F5VZEWLJ6K:31QNSG6A5SZ7EAQAF2Y6G0GN89U87W","2",9,8,3,"5","<p style=""font-size:100px""><b>P</b></p><p style=""position: absolute; top: 30px; right: 30px; text-align:right; font-size:50px"""">N = 3</p>","P",0,NA,NA,0,"agree",18,19,16,18,17,"52","male","good","Very Strong Agreement","Strong Agreement","Strong Agreement","Very Strong Agreement","Strong Agreement","Very Strong Agreement","Strong Agreement","Strong Agreement","Very Strong Agreement","Strong Agreement","Strong Agreement","Strong Agreement","Very Strong Agreement","Strong Agreement","Strong Agreement","Strong Agreement","Strong Agreement","Strong Agreement"
"141","A153F5VZEWLJ6K:31QNSG6A5SZ7EAQAF2Y6G0GN89U87W","2",9,9,3,"5","<p style=""font-size:100px""><b>t</b></p><p style=""position: absolute; top: 30px; right: 30px; text-align:right; font-size:50px"""">N = 3</p>","t",0,NA,NA,0,"agree",18,19,16,18,17,"52","male","good","Very Strong Agreement","Strong Agreement","Strong Agreement","Very Strong Agreement","Strong Agreement","Very Strong Agreement","Strong Agreement","Strong Agreement","Very Strong Agreement","Strong Agreement","Strong Agreement","Strong Agreement","Very Strong Agreement","Strong Agreement","Strong Agreement","Strong Agreement","Strong Agreement","Strong Agreement"
"142","A153F5VZEWLJ6K:31QNSG6A5SZ7EAQAF2Y6G0GN89U87W","2",9,10,3,"5","<p style=""font-size:100px""><b>g</b></p><p style=""position: absolute; top: 30px; right: 30px; text-align:right; font-size:50px"""">N = 3</p>","g",0,NA,NA,0,"agree",18,19,16,18,17,"52","male","good","Very Strong Agreement","Strong Agreement","Strong Agreement","Very Strong Agreement","Strong Agreement","Very Strong Agreement","Strong Agreement","Strong Agreement","Very Strong Agreement","Strong Agreement","Strong Agreement","Strong Agreement","Very Strong Agreement","Strong Agreement","Strong Agreement","Strong Agreement","Strong Agreement","Strong Agreement"
"143","A153F5VZEWLJ6K:31QNSG6A5SZ7EAQAF2Y6G0GN89U87W","2",9,11,3,"5","<p style=""font-size:100px""><b>P</b></p><p style=""position: absolute; top: 30px; right: 30px; text-align:right; font-size:50px"""">N = 3</p>","P",0,NA,NA,0,"agree",18,19,16,18,17,"52","male","good","Very Strong Agreement","Strong Agreement","Strong Agreement","Very Strong Agreement","Strong Agreement","Very Strong Agreement","Strong Agreement","Strong Agreement","Very Strong Agreement","Strong Agreement","Strong Agreement","Strong Agreement","Very Strong Agreement","Strong Agreement","Strong Agreement","Strong Agreement","Strong Agreement","Strong Agreement"
"144","A153F5VZEWLJ6K:31QNSG6A5SZ7EAQAF2Y6G0GN89U87W","2",9,12,3,"5","<p style=""font-size:100px""><b>v</b></p><p style=""position: absolute; top: 30px; right: 30px; text-align:right; font-size:50px"""">N = 3</p>","v",0,NA,NA,0,"agree",18,19,16,18,17,"52","male","good","Very Strong Agreement","Strong Agreement","Strong Agreement","Very Strong Agreement","Strong Agreement","Very Strong Agreement","Strong Agreement","Strong Agreement","Very Strong Agreement","Strong Agreement","Strong Agreement","Strong Agreement","Very Strong Agreement","Strong Agreement","Strong Agreement","Strong Agreement","Strong Agreement","Strong Agreement"
"145","A153F5VZEWLJ6K:31QNSG6A5SZ7EAQAF2Y6G0GN89U87W","2",10,1,3,"5","<p style=""font-size:100px""><b>t</b></p><p style=""position: absolute; top: 30px; right: 30px; text-align:right; font-size:50px"""">N = 3</p>","t",0,NA,NA,0,"agree",19,17,17,17,17,"52","male","good","Very Strong Agreement","Strong Agreement","Strong Agreement","Very Strong Agreement","Strong Agreement","Very Strong Agreement","Strong Agreement","Strong Agreement","Very Strong Agreement","Strong Agreement","Strong Agreement","Strong Agreement","Very Strong Agreement","Strong Agreement","Strong Agreement","Strong Agreement","Strong Agreement","Strong Agreement"
"146","A153F5VZEWLJ6K:31QNSG6A5SZ7EAQAF2Y6G0GN89U87W","2",10,2,3,"5","<p style=""font-size:100px""><b>P</b></p><p style=""position: absolute; top: 30px; right: 30px; text-align:right; font-size:50px"""">N = 3</p>","P",0,NA,NA,0,"agree",19,17,17,17,17,"52","male","good","Very Strong Agreement","Strong Agreement","Strong Agreement","Very Strong Agreement","Strong Agreement","Very Strong Agreement","Strong Agreement","Strong Agreement","Very Strong Agreement","Strong Agreement","Strong Agreement","Strong Agreement","Very Strong Agreement","Strong Agreement","Strong Agreement","Strong Agreement","Strong Agreement","Strong Agreement"
"147","A153F5VZEWLJ6K:31QNSG6A5SZ7EAQAF2Y6G0GN89U87W","2",10,3,3,"5","<p style=""font-size:100px""><b>G</b></p><p style=""position: absolute; top: 30px; right: 30px; text-align:right; font-size:50px"""">N = 3</p>","G",0,NA,NA,0,"agree",19,17,17,17,17,"52","male","good","Very Strong Agreement","Strong Agreement","Strong Agreement","Very Strong Agreement","Strong Agreement","Very Strong Agreement","Strong Agreement","Strong Agreement","Very Strong Agreement","Strong Agreement","Strong Agreement","Strong Agreement","Very Strong Agreement","Strong Agreement","Strong Agreement","Strong Agreement","Strong Agreement","Strong Agreement"
"148","A153F5VZEWLJ6K:31QNSG6A5SZ7EAQAF2Y6G0GN89U87W","2",10,4,3,"5","<p style=""font-size:100px""><b>V</b></p><p style=""position: absolute; top: 30px; right: 30px; text-align:right; font-size:50px"""">N = 3</p>","V",0,NA,NA,0,"agree",19,17,17,17,17,"52","male","good","Very Strong Agreement","Strong Agreement","Strong Agreement","Very Strong Agreement","Strong Agreement","Very Strong Agreement","Strong Agreement","Strong Agreement","Very Strong Agreement","Strong Agreement","Strong Agreement","Strong Agreement","Very Strong Agreement","Strong Agreement","Strong Agreement","Strong Agreement","Strong Agreement","Strong Agreement"
"149","A153F5VZEWLJ6K:31QNSG6A5SZ7EAQAF2Y6G0GN89U87W","2",10,5,3,"5","<p style=""font-size:100px""><b>t</b></p><p style=""position: absolute; top: 30px; right: 30px; text-align:right; font-size:50px"""">N = 3</p>","t",0,NA,NA,0,"agree",19,17,17,17,17,"52","male","good","Very Strong Agreement","Strong Agreement","Strong Agreement","Very Strong Agreement","Strong Agreement","Very Strong Agreement","Strong Agreement","Strong Agreement","Very Strong Agreement","Strong Agreement","Strong Agreement","Strong Agreement","Very Strong Agreement","Strong Agreement","Strong Agreement","Strong Agreement","Strong Agreement","Strong Agreement"
"150","A153F5VZEWLJ6K:31QNSG6A5SZ7EAQAF2Y6G0GN89U87W","2",10,6,3,"5","<p style=""font-size:100px""><b>G</b></p><p style=""position: absolute; top: 30px; right: 30px; text-align:right; font-size:50px"""">N = 3</p>","G",0,NA,NA,0,"agree",19,17,17,17,17,"52","male","good","Very Strong Agreement","Strong Agreement","Strong Agreement","Very Strong Agreement","Strong Agreement","Very Strong Agreement","Strong Agreement","Strong Agreement","Very Strong Agreement","Strong Agreement","Strong Agreement","Strong Agreement","Very Strong Agreement","Strong Agreement","Strong Agreement","Strong Agreement","Strong Agreement","Strong Agreement"
"151","A153F5VZEWLJ6K:31QNSG6A5SZ7EAQAF2Y6G0GN89U87W","2",10,7,3,"5","<p style=""font-size:100px""><b>P</b></p><p style=""position: absolute; top: 30px; right: 30px; text-align:right; font-size:50px"""">N = 3</p>","P",0,NA,NA,0,"agree",19,17,17,17,17,"52","male","good","Very Strong Agreement","Strong Agreement","Strong Agreement","Very Strong Agreement","Strong Agreement","Very Strong Agreement","Strong Agreement","Strong Agreement","Very Strong Agreement","Strong Agreement","Strong Agreement","Strong Agreement","Very Strong Agreement","Strong Agreement","Strong Agreement","Strong Agreement","Strong Agreement","Strong Agreement"
"152","A153F5VZEWLJ6K:31QNSG6A5SZ7EAQAF2Y6G0GN89U87W","2",10,8,3,"5","<p style=""font-size:100px""><b>g</b></p><p style=""position: absolute; top: 30px; right: 30px; text-align:right; font-size:50px"""">N = 3</p>","g",0,NA,NA,0,"agree",19,17,17,17,17,"52","male","good","Very Strong Agreement","Strong Agreement","Strong Agreement","Very Strong Agreement","Strong Agreement","Very Strong Agreement","Strong Agreement","Strong Agreement","Very Strong Agreement","Strong Agreement","Strong Agreement","Strong Agreement","Very Strong Agreement","Strong Agreement","Strong Agreement","Strong Agreement","Strong Agreement","Strong Agreement"
"153","A153F5VZEWLJ6K:31QNSG6A5SZ7EAQAF2Y6G0GN89U87W","2",10,9,3,"5","<p style=""font-size:100px""><b>V</b></p><p style=""position: absolute; top: 30px; right: 30px; text-align:right; font-size:50px"""">N = 3</p>","V",0,NA,NA,0,"agree",19,17,17,17,17,"52","male","good","Very Strong Agreement","Strong Agreement","Strong Agreement","Very Strong Agreement","Strong Agreement","Very Strong Agreement","Strong Agreement","Strong Agreement","Very Strong Agreement","Strong Agreement","Strong Agreement","Strong Agreement","Very Strong Agreement","Strong Agreement","Strong Agreement","Strong Agreement","Strong Agreement","Strong Agreement"
"154","A153F5VZEWLJ6K:31QNSG6A5SZ7EAQAF2Y6G0GN89U87W","2",10,10,3,"5","<p style=""font-size:100px""><b>P</b></p><p style=""position: absolute; top: 30px; right: 30px; text-align:right; font-size:50px"""">N = 3</p>","P",0,NA,NA,0,"agree",19,17,17,17,17,"52","male","good","Very Strong Agreement","Strong Agreement","Strong Agreement","Very Strong Agreement","Strong Agreement","Very Strong Agreement","Strong Agreement","Strong Agreement","Very Strong Agreement","Strong Agreement","Strong Agreement","Strong Agreement","Very Strong Agreement","Strong Agreement","Strong Agreement","Strong Agreement","Strong Agreement","Strong Agreement"
