"","subject","run","block","trial","N","reward","stimulus","cue","isTarget","key_press","rt","acc","debrief","performance","frustration","demand","temporal","effort","age","gender","comments","nfc1","nfc2","nfc3","nfc4","nfc5","nfc6","nfc7","nfc8","nfc9","nfc10","nfc11","nfc12","nfc13","nfc14","nfc15","nfc16","nfc17","nfc18"
"1","A2C9Z4YND5DX0E:3WMINLGALC9R9FEL3HQVSDEWZ92CAG","practice",1,1,1,"NA","<p style=""font-size:100px""><b>p</b></p><p style=""position: absolute; top: 30px; right: 30px; text-align:right; font-size:50px"""">N = 1</p>","p",0,73,7098.19999999925,1,"agree",16,17,17,16,17,"67","female","yes instructions clear","Strong Agreement","Strong Agreement","Very Strong Agreement","Moderate Agreement","Very Strong Agreement","Strong Agreement","Moderate Agreement","Very Strong Agreement","Moderate Agreement","Very Strong Agreement","Strong Agreement","Strong Agreement","Very Strong Agreement","Strong Agreement","Slight Agreement","Strong Agreement","Very Strong Agreement","Strong Agreement"
"2","A2C9Z4YND5DX0E:3WMINLGALC9R9FEL3HQVSDEWZ92CAG","practice",1,2,1,"NA","<p style=""font-size:100px""><b>b</b></p><p style=""position: absolute; top: 30px; right: 30px; text-align:right; font-size:50px"""">N = 1</p>","b",0,69,987.5,0,"agree",16,17,17,16,17,"67","female","yes instructions clear","Strong Agreement","Strong Agreement","Very Strong Agreement","Moderate Agreement","Very Strong Agreement","Strong Agreement","Moderate Agreement","Very Strong Agreement","Moderate Agreement","Very Strong Agreement","Strong Agreement","Strong Agreement","Very Strong Agreement","Strong Agreement","Slight Agreement","Strong Agreement","Very Strong Agreement","Strong Agreement"
"3","A2C9Z4YND5DX0E:3WMINLGALC9R9FEL3HQVSDEWZ92CAG","practice",1,3,1,"NA","<p style=""font-size:100px""><b>G</b></p><p style=""position: absolute; top: 30px; right: 30px; text-align:right; font-size:50px"""">N = 1</p>","G",0,73,1545.40000000037,1,"agree",16,17,17,16,17,"67","female","yes instructions clear","Strong Agreement","Strong Agreement","Very Strong Agreement","Moderate Agreement","Very Strong Agreement","Strong Agreement","Moderate Agreement","Very Strong Agreement","Moderate Agreement","Very Strong Agreement","Strong Agreement","Strong Agreement","Very Strong Agreement","Strong Agreement","Slight Agreement","Strong Agreement","Very Strong Agreement","Strong Agreement"
"4","A2C9Z4YND5DX0E:3WMINLGALC9R9FEL3HQVSDEWZ92CAG","practice",1,4,1,"NA","<p style=""font-size:100px""><b>P</b></p><p style=""position: absolute; top: 30px; right: 30px; text-align:right; font-size:50px"""">N = 1</p>","P",0,73,1955.29999999888,1,"agree",16,17,17,16,17,"67","female","yes instructions clear","Strong Agreement","Strong Agreement","Very Strong Agreement","Moderate Agreement","Very Strong Agreement","Strong Agreement","Moderate Agreement","Very Strong Agreement","Moderate Agreement","Very Strong Agreement","Strong Agreement","Strong Agreement","Very Strong Agreement","Strong Agreement","Slight Agreement","Strong Agreement","Very Strong Agreement","Strong Agreement"
"5","A2C9Z4YND5DX0E:3WMINLGALC9R9FEL3HQVSDEWZ92CAG","practice",1,5,1,"NA","<p style=""font-size:100px""><b>P</b></p><p style=""position: absolute; top: 30px; right: 30px; text-align:right; font-size:50px"""">N = 1</p>","P",1,73,767,0,"agree",16,17,17,16,17,"67","female","yes instructions clear","Strong Agreement","Strong Agreement","Very Strong Agreement","Moderate Agreement","Very Strong Agreement","Strong Agreement","Moderate Agreement","Very Strong Agreement","Moderate Agreement","Very Strong Agreement","Strong Agreement","Strong Agreement","Very Strong Agreement","Strong Agreement","Slight Agreement","Strong Agreement","Very Strong Agreement","Strong Agreement"
"6","A2C9Z4YND5DX0E:3WMINLGALC9R9FEL3HQVSDEWZ92CAG","practice",1,6,1,"NA","<p style=""font-size:100px""><b>b</b></p><p style=""position: absolute; top: 30px; right: 30px; text-align:right; font-size:50px"""">N = 1</p>","b",0,69,802.700000001118,0,"agree",16,17,17,16,17,"67","female","yes instructions clear","Strong Agreement","Strong Agreement","Very Strong Agreement","Moderate Agreement","Very Strong Agreement","Strong Agreement","Moderate Agreement","Very Strong Agreement","Moderate Agreement","Very Strong Agreement","Strong Agreement","Strong Agreement","Very Strong Agreement","Strong Agreement","Slight Agreement","Strong Agreement","Very Strong Agreement","Strong Agreement"
"7","A2C9Z4YND5DX0E:3WMINLGALC9R9FEL3HQVSDEWZ92CAG","practice",1,7,1,"NA","<p style=""font-size:100px""><b>b</b></p><p style=""position: absolute; top: 30px; right: 30px; text-align:right; font-size:50px"""">N = 1</p>","b",1,73,8.70000000111759,0,"agree",16,17,17,16,17,"67","female","yes instructions clear","Strong Agreement","Strong Agreement","Very Strong Agreement","Moderate Agreement","Very Strong Agreement","Strong Agreement","Moderate Agreement","Very Strong Agreement","Moderate Agreement","Very Strong Agreement","Strong Agreement","Strong Agreement","Very Strong Agreement","Strong Agreement","Slight Agreement","Strong Agreement","Very Strong Agreement","Strong Agreement"
"8","A2C9Z4YND5DX0E:3WMINLGALC9R9FEL3HQVSDEWZ92CAG","practice",1,8,1,"NA","<p style=""font-size:100px""><b>t</b></p><p style=""position: absolute; top: 30px; right: 30px; text-align:right; font-size:50px"""">N = 1</p>","t",0,69,936,0,"agree",16,17,17,16,17,"67","female","yes instructions clear","Strong Agreement","Strong Agreement","Very Strong Agreement","Moderate Agreement","Very Strong Agreement","Strong Agreement","Moderate Agreement","Very Strong Agreement","Moderate Agreement","Very Strong Agreement","Strong Agreement","Strong Agreement","Very Strong Agreement","Strong Agreement","Slight Agreement","Strong Agreement","Very Strong Agreement","Strong Agreement"
"9","A2C9Z4YND5DX0E:3WMINLGALC9R9FEL3HQVSDEWZ92CAG","practice",1,9,1,"NA","<p style=""font-size:100px""><b>t</b></p><p style=""position: absolute; top: 30px; right: 30px; text-align:right; font-size:50px"""">N = 1</p>","t",1,73,1340.80000000075,0,"agree",16,17,17,16,17,"67","female","yes instructions clear","Strong Agreement","Strong Agreement","Very Strong Agreement","Moderate Agreement","Very Strong Agreement","Strong Agreement","Moderate Agreement","Very Strong Agreement","Moderate Agreement","Very Strong Agreement","Strong Agreement","Strong Agreement","Very Strong Agreement","Strong Agreement","Slight Agreement","Strong Agreement","Very Strong Agreement","Strong Agreement"
"10","A2C9Z4YND5DX0E:3WMINLGALC9R9FEL3HQVSDEWZ92CAG","practice",1,10,1,"NA","<p style=""font-size:100px""><b>B</b></p><p style=""position: absolute; top: 30px; right: 30px; text-align:right; font-size:50px"""">N = 1</p>","B",0,69,1084.30000000075,0,"agree",16,17,17,16,17,"67","female","yes instructions clear","Strong Agreement","Strong Agreement","Very Strong Agreement","Moderate Agreement","Very Strong Agreement","Strong Agreement","Moderate Agreement","Very Strong Agreement","Moderate Agreement","Very Strong Agreement","Strong Agreement","Strong Agreement","Very Strong Agreement","Strong Agreement","Slight Agreement","Strong Agreement","Very Strong Agreement","Strong Agreement"
"11","A2C9Z4YND5DX0E:3WMINLGALC9R9FEL3HQVSDEWZ92CAG","practice",1,11,1,"NA","<p style=""font-size:100px""><b>B</b></p><p style=""position: absolute; top: 30px; right: 30px; text-align:right; font-size:50px"""">N = 1</p>","B",1,73,1032.90000000037,0,"agree",16,17,17,16,17,"67","female","yes instructions clear","Strong Agreement","Strong Agreement","Very Strong Agreement","Moderate Agreement","Very Strong Agreement","Strong Agreement","Moderate Agreement","Very Strong Agreement","Moderate Agreement","Very Strong Agreement","Strong Agreement","Strong Agreement","Very Strong Agreement","Strong Agreement","Slight Agreement","Strong Agreement","Very Strong Agreement","Strong Agreement"
"12","A2C9Z4YND5DX0E:3WMINLGALC9R9FEL3HQVSDEWZ92CAG","practice",1,12,1,"NA","<p style=""font-size:100px""><b>G</b></p><p style=""position: absolute; top: 30px; right: 30px; text-align:right; font-size:50px"""">N = 1</p>","G",0,69,404.10000000149,0,"agree",16,17,17,16,17,"67","female","yes instructions clear","Strong Agreement","Strong Agreement","Very Strong Agreement","Moderate Agreement","Very Strong Agreement","Strong Agreement","Moderate Agreement","Very Strong Agreement","Moderate Agreement","Very Strong Agreement","Strong Agreement","Strong Agreement","Very Strong Agreement","Strong Agreement","Slight Agreement","Strong Agreement","Very Strong Agreement","Strong Agreement"
"13","A2C9Z4YND5DX0E:3WMINLGALC9R9FEL3HQVSDEWZ92CAG","practice",2,1,2,"NA","<p style=""font-size:100px""><b>v</b></p><p style=""position: absolute; top: 30px; right: 30px; text-align:right; font-size:50px"""">N = 2</p>","v",0,69,1644.69999999925,0,"agree",16,17,17,16,17,"67","female","yes instructions clear","Strong Agreement","Strong Agreement","Very Strong Agreement","Moderate Agreement","Very Strong Agreement","Strong Agreement","Moderate Agreement","Very Strong Agreement","Moderate Agreement","Very Strong Agreement","Strong Agreement","Strong Agreement","Very Strong Agreement","Strong Agreement","Slight Agreement","Strong Agreement","Very Strong Agreement","Strong Agreement"
"14","A2C9Z4YND5DX0E:3WMINLGALC9R9FEL3HQVSDEWZ92CAG","practice",2,2,2,"NA","<p style=""font-size:100px""><b>B</b></p><p style=""position: absolute; top: 30px; right: 30px; text-align:right; font-size:50px"""">N = 2</p>","B",0,73,1060.20000000112,1,"agree",16,17,17,16,17,"67","female","yes instructions clear","Strong Agreement","Strong Agreement","Very Strong Agreement","Moderate Agreement","Very Strong Agreement","Strong Agreement","Moderate Agreement","Very Strong Agreement","Moderate Agreement","Very Strong Agreement","Strong Agreement","Strong Agreement","Very Strong Agreement","Strong Agreement","Slight Agreement","Strong Agreement","Very Strong Agreement","Strong Agreement"
"15","A2C9Z4YND5DX0E:3WMINLGALC9R9FEL3HQVSDEWZ92CAG","practice",2,3,2,"NA","<p style=""font-size:100px""><b>v</b></p><p style=""position: absolute; top: 30px; right: 30px; text-align:right; font-size:50px"""">N = 2</p>","v",1,69,1386.80000000075,1,"agree",16,17,17,16,17,"67","female","yes instructions clear","Strong Agreement","Strong Agreement","Very Strong Agreement","Moderate Agreement","Very Strong Agreement","Strong Agreement","Moderate Agreement","Very Strong Agreement","Moderate Agreement","Very Strong Agreement","Strong Agreement","Strong Agreement","Very Strong Agreement","Strong Agreement","Slight Agreement","Strong Agreement","Very Strong Agreement","Strong Agreement"
"16","A2C9Z4YND5DX0E:3WMINLGALC9R9FEL3HQVSDEWZ92CAG","practice",2,4,2,"NA","<p style=""font-size:100px""><b>V</b></p><p style=""position: absolute; top: 30px; right: 30px; text-align:right; font-size:50px"""">N = 2</p>","V",0,69,913.099999999627,0,"agree",16,17,17,16,17,"67","female","yes instructions clear","Strong Agreement","Strong Agreement","Very Strong Agreement","Moderate Agreement","Very Strong Agreement","Strong Agreement","Moderate Agreement","Very Strong Agreement","Moderate Agreement","Very Strong Agreement","Strong Agreement","Strong Agreement","Very Strong Agreement","Strong Agreement","Slight Agreement","Strong Agreement","Very Strong Agreement","Strong Agreement"
"17","A2C9Z4YND5DX0E:3WMINLGALC9R9FEL3HQVSDEWZ92CAG","practice",2,5,2,"NA","<p style=""font-size:100px""><b>v</b></p><p style=""position: absolute; top: 30px; right: 30px; text-align:right; font-size:50px"""">N = 2</p>","v",1,73,2666.79999999888,0,"agree",16,17,17,16,17,"67","female","yes instructions clear","Strong Agreement","Strong Agreement","Very Strong Agreement","Moderate Agreement","Very Strong Agreement","Strong Agreement","Moderate Agreement","Very Strong Agreement","Moderate Agreement","Very Strong Agreement","Strong Agreement","Strong Agreement","Very Strong Agreement","Strong Agreement","Slight Agreement","Strong Agreement","Very Strong Agreement","Strong Agreement"
"18","A2C9Z4YND5DX0E:3WMINLGALC9R9FEL3HQVSDEWZ92CAG","practice",2,6,2,"NA","<p style=""font-size:100px""><b>B</b></p><p style=""position: absolute; top: 30px; right: 30px; text-align:right; font-size:50px"""">N = 2</p>","B",0,69,763.400000000373,0,"agree",16,17,17,16,17,"67","female","yes instructions clear","Strong Agreement","Strong Agreement","Very Strong Agreement","Moderate Agreement","Very Strong Agreement","Strong Agreement","Moderate Agreement","Very Strong Agreement","Moderate Agreement","Very Strong Agreement","Strong Agreement","Strong Agreement","Very Strong Agreement","Strong Agreement","Slight Agreement","Strong Agreement","Very Strong Agreement","Strong Agreement"
"19","A2C9Z4YND5DX0E:3WMINLGALC9R9FEL3HQVSDEWZ92CAG","practice",2,7,2,"NA","<p style=""font-size:100px""><b>t</b></p><p style=""position: absolute; top: 30px; right: 30px; text-align:right; font-size:50px"""">N = 2</p>","t",0,73,990.400000000373,1,"agree",16,17,17,16,17,"67","female","yes instructions clear","Strong Agreement","Strong Agreement","Very Strong Agreement","Moderate Agreement","Very Strong Agreement","Strong Agreement","Moderate Agreement","Very Strong Agreement","Moderate Agreement","Very Strong Agreement","Strong Agreement","Strong Agreement","Very Strong Agreement","Strong Agreement","Slight Agreement","Strong Agreement","Very Strong Agreement","Strong Agreement"
"20","A2C9Z4YND5DX0E:3WMINLGALC9R9FEL3HQVSDEWZ92CAG","practice",2,8,2,"NA","<p style=""font-size:100px""><b>T</b></p><p style=""position: absolute; top: 30px; right: 30px; text-align:right; font-size:50px"""">N = 2</p>","T",0,69,2142.90000000037,0,"agree",16,17,17,16,17,"67","female","yes instructions clear","Strong Agreement","Strong Agreement","Very Strong Agreement","Moderate Agreement","Very Strong Agreement","Strong Agreement","Moderate Agreement","Very Strong Agreement","Moderate Agreement","Very Strong Agreement","Strong Agreement","Strong Agreement","Very Strong Agreement","Strong Agreement","Slight Agreement","Strong Agreement","Very Strong Agreement","Strong Agreement"
"21","A2C9Z4YND5DX0E:3WMINLGALC9R9FEL3HQVSDEWZ92CAG","practice",2,9,2,"NA","<p style=""font-size:100px""><b>p</b></p><p style=""position: absolute; top: 30px; right: 30px; text-align:right; font-size:50px"""">N = 2</p>","p",0,69,1238.39999999851,0,"agree",16,17,17,16,17,"67","female","yes instructions clear","Strong Agreement","Strong Agreement","Very Strong Agreement","Moderate Agreement","Very Strong Agreement","Strong Agreement","Moderate Agreement","Very Strong Agreement","Moderate Agreement","Very Strong Agreement","Strong Agreement","Strong Agreement","Very Strong Agreement","Strong Agreement","Slight Agreement","Strong Agreement","Very Strong Agreement","Strong Agreement"
"22","A2C9Z4YND5DX0E:3WMINLGALC9R9FEL3HQVSDEWZ92CAG","practice",2,10,2,"NA","<p style=""font-size:100px""><b>T</b></p><p style=""position: absolute; top: 30px; right: 30px; text-align:right; font-size:50px"""">N = 2</p>","T",1,73,493.400000000373,0,"agree",16,17,17,16,17,"67","female","yes instructions clear","Strong Agreement","Strong Agreement","Very Strong Agreement","Moderate Agreement","Very Strong Agreement","Strong Agreement","Moderate Agreement","Very Strong Agreement","Moderate Agreement","Very Strong Agreement","Strong Agreement","Strong Agreement","Very Strong Agreement","Strong Agreement","Slight Agreement","Strong Agreement","Very Strong Agreement","Strong Agreement"
"23","A2C9Z4YND5DX0E:3WMINLGALC9R9FEL3HQVSDEWZ92CAG","practice",2,11,2,"NA","<p style=""font-size:100px""><b>b</b></p><p style=""position: absolute; top: 30px; right: 30px; text-align:right; font-size:50px"""">N = 2</p>","b",0,69,1703.90000000037,0,"agree",16,17,17,16,17,"67","female","yes instructions clear","Strong Agreement","Strong Agreement","Very Strong Agreement","Moderate Agreement","Very Strong Agreement","Strong Agreement","Moderate Agreement","Very Strong Agreement","Moderate Agreement","Very Strong Agreement","Strong Agreement","Strong Agreement","Very Strong Agreement","Strong Agreement","Slight Agreement","Strong Agreement","Very Strong Agreement","Strong Agreement"
"24","A2C9Z4YND5DX0E:3WMINLGALC9R9FEL3HQVSDEWZ92CAG","practice",2,12,2,"NA","<p style=""font-size:100px""><b>T</b></p><p style=""position: absolute; top: 30px; right: 30px; text-align:right; font-size:50px"""">N = 2</p>","T",1,73,938.099999999627,0,"agree",16,17,17,16,17,"67","female","yes instructions clear","Strong Agreement","Strong Agreement","Very Strong Agreement","Moderate Agreement","Very Strong Agreement","Strong Agreement","Moderate Agreement","Very Strong Agreement","Moderate Agreement","Very Strong Agreement","Strong Agreement","Strong Agreement","Very Strong Agreement","Strong Agreement","Slight Agreement","Strong Agreement","Very Strong Agreement","Strong Agreement"
"25","A2C9Z4YND5DX0E:3WMINLGALC9R9FEL3HQVSDEWZ92CAG","practice",3,1,3,"NA","<p style=""font-size:100px""><b>t</b></p><p style=""position: absolute; top: 30px; right: 30px; text-align:right; font-size:50px"""">N = 3</p>","t",0,69,1773.19999999925,0,"agree",16,17,17,16,17,"67","female","yes instructions clear","Strong Agreement","Strong Agreement","Very Strong Agreement","Moderate Agreement","Very Strong Agreement","Strong Agreement","Moderate Agreement","Very Strong Agreement","Moderate Agreement","Very Strong Agreement","Strong Agreement","Strong Agreement","Very Strong Agreement","Strong Agreement","Slight Agreement","Strong Agreement","Very Strong Agreement","Strong Agreement"
"26","A2C9Z4YND5DX0E:3WMINLGALC9R9FEL3HQVSDEWZ92CAG","practice",3,2,3,"NA","<p style=""font-size:100px""><b>G</b></p><p style=""position: absolute; top: 30px; right: 30px; text-align:right; font-size:50px"""">N = 3</p>","G",0,69,4021,0,"agree",16,17,17,16,17,"67","female","yes instructions clear","Strong Agreement","Strong Agreement","Very Strong Agreement","Moderate Agreement","Very Strong Agreement","Strong Agreement","Moderate Agreement","Very Strong Agreement","Moderate Agreement","Very Strong Agreement","Strong Agreement","Strong Agreement","Very Strong Agreement","Strong Agreement","Slight Agreement","Strong Agreement","Very Strong Agreement","Strong Agreement"
"27","A2C9Z4YND5DX0E:3WMINLGALC9R9FEL3HQVSDEWZ92CAG","practice",3,3,3,"NA","<p style=""font-size:100px""><b>v</b></p><p style=""position: absolute; top: 30px; right: 30px; text-align:right; font-size:50px"""">N = 3</p>","v",0,73,1421.19999999925,1,"agree",16,17,17,16,17,"67","female","yes instructions clear","Strong Agreement","Strong Agreement","Very Strong Agreement","Moderate Agreement","Very Strong Agreement","Strong Agreement","Moderate Agreement","Very Strong Agreement","Moderate Agreement","Very Strong Agreement","Strong Agreement","Strong Agreement","Very Strong Agreement","Strong Agreement","Slight Agreement","Strong Agreement","Very Strong Agreement","Strong Agreement"
"28","A2C9Z4YND5DX0E:3WMINLGALC9R9FEL3HQVSDEWZ92CAG","practice",3,4,3,"NA","<p style=""font-size:100px""><b>t</b></p><p style=""position: absolute; top: 30px; right: 30px; text-align:right; font-size:50px"""">N = 3</p>","t",1,73,1448.20000000112,0,"agree",16,17,17,16,17,"67","female","yes instructions clear","Strong Agreement","Strong Agreement","Very Strong Agreement","Moderate Agreement","Very Strong Agreement","Strong Agreement","Moderate Agreement","Very Strong Agreement","Moderate Agreement","Very Strong Agreement","Strong Agreement","Strong Agreement","Very Strong Agreement","Strong Agreement","Slight Agreement","Strong Agreement","Very Strong Agreement","Strong Agreement"
"29","A2C9Z4YND5DX0E:3WMINLGALC9R9FEL3HQVSDEWZ92CAG","practice",3,5,3,"NA","<p style=""font-size:100px""><b>t</b></p><p style=""position: absolute; top: 30px; right: 30px; text-align:right; font-size:50px"""">N = 3</p>","t",0,69,3344.80000000075,0,"agree",16,17,17,16,17,"67","female","yes instructions clear","Strong Agreement","Strong Agreement","Very Strong Agreement","Moderate Agreement","Very Strong Agreement","Strong Agreement","Moderate Agreement","Very Strong Agreement","Moderate Agreement","Very Strong Agreement","Strong Agreement","Strong Agreement","Very Strong Agreement","Strong Agreement","Slight Agreement","Strong Agreement","Very Strong Agreement","Strong Agreement"
"30","A2C9Z4YND5DX0E:3WMINLGALC9R9FEL3HQVSDEWZ92CAG","practice",3,6,3,"NA","<p style=""font-size:100px""><b>v</b></p><p style=""position: absolute; top: 30px; right: 30px; text-align:right; font-size:50px"""">N = 3</p>","v",1,73,423,0,"agree",16,17,17,16,17,"67","female","yes instructions clear","Strong Agreement","Strong Agreement","Very Strong Agreement","Moderate Agreement","Very Strong Agreement","Strong Agreement","Moderate Agreement","Very Strong Agreement","Moderate Agreement","Very Strong Agreement","Strong Agreement","Strong Agreement","Very Strong Agreement","Strong Agreement","Slight Agreement","Strong Agreement","Very Strong Agreement","Strong Agreement"
"31","A2C9Z4YND5DX0E:3WMINLGALC9R9FEL3HQVSDEWZ92CAG","practice",3,7,3,"NA","<p style=""font-size:100px""><b>B</b></p><p style=""position: absolute; top: 30px; right: 30px; text-align:right; font-size:50px"""">N = 3</p>","B",0,69,353.599999999627,0,"agree",16,17,17,16,17,"67","female","yes instructions clear","Strong Agreement","Strong Agreement","Very Strong Agreement","Moderate Agreement","Very Strong Agreement","Strong Agreement","Moderate Agreement","Very Strong Agreement","Moderate Agreement","Very Strong Agreement","Strong Agreement","Strong Agreement","Very Strong Agreement","Strong Agreement","Slight Agreement","Strong Agreement","Very Strong Agreement","Strong Agreement"
"32","A2C9Z4YND5DX0E:3WMINLGALC9R9FEL3HQVSDEWZ92CAG","practice",3,8,3,"NA","<p style=""font-size:100px""><b>v</b></p><p style=""position: absolute; top: 30px; right: 30px; text-align:right; font-size:50px"""">N = 3</p>","v",0,73,260.599999999627,1,"agree",16,17,17,16,17,"67","female","yes instructions clear","Strong Agreement","Strong Agreement","Very Strong Agreement","Moderate Agreement","Very Strong Agreement","Strong Agreement","Moderate Agreement","Very Strong Agreement","Moderate Agreement","Very Strong Agreement","Strong Agreement","Strong Agreement","Very Strong Agreement","Strong Agreement","Slight Agreement","Strong Agreement","Very Strong Agreement","Strong Agreement"
"33","A2C9Z4YND5DX0E:3WMINLGALC9R9FEL3HQVSDEWZ92CAG","practice",3,9,3,"NA","<p style=""font-size:100px""><b>v</b></p><p style=""position: absolute; top: 30px; right: 30px; text-align:right; font-size:50px"""">N = 3</p>","v",1,73,711.39999999851,0,"agree",16,17,17,16,17,"67","female","yes instructions clear","Strong Agreement","Strong Agreement","Very Strong Agreement","Moderate Agreement","Very Strong Agreement","Strong Agreement","Moderate Agreement","Very Strong Agreement","Moderate Agreement","Very Strong Agreement","Strong Agreement","Strong Agreement","Very Strong Agreement","Strong Agreement","Slight Agreement","Strong Agreement","Very Strong Agreement","Strong Agreement"
"34","A2C9Z4YND5DX0E:3WMINLGALC9R9FEL3HQVSDEWZ92CAG","practice",3,10,3,"NA","<p style=""font-size:100px""><b>t</b></p><p style=""position: absolute; top: 30px; right: 30px; text-align:right; font-size:50px"""">N = 3</p>","t",0,73,288.799999998882,1,"agree",16,17,17,16,17,"67","female","yes instructions clear","Strong Agreement","Strong Agreement","Very Strong Agreement","Moderate Agreement","Very Strong Agreement","Strong Agreement","Moderate Agreement","Very Strong Agreement","Moderate Agreement","Very Strong Agreement","Strong Agreement","Strong Agreement","Very Strong Agreement","Strong Agreement","Slight Agreement","Strong Agreement","Very Strong Agreement","Strong Agreement"
"35","A2C9Z4YND5DX0E:3WMINLGALC9R9FEL3HQVSDEWZ92CAG","practice",3,11,3,"NA","<p style=""font-size:100px""><b>v</b></p><p style=""position: absolute; top: 30px; right: 30px; text-align:right; font-size:50px"""">N = 3</p>","v",1,69,2163.30000000075,1,"agree",16,17,17,16,17,"67","female","yes instructions clear","Strong Agreement","Strong Agreement","Very Strong Agreement","Moderate Agreement","Very Strong Agreement","Strong Agreement","Moderate Agreement","Very Strong Agreement","Moderate Agreement","Very Strong Agreement","Strong Agreement","Strong Agreement","Very Strong Agreement","Strong Agreement","Slight Agreement","Strong Agreement","Very Strong Agreement","Strong Agreement"
"36","A2C9Z4YND5DX0E:3WMINLGALC9R9FEL3HQVSDEWZ92CAG","practice",3,12,3,"NA","<p style=""font-size:100px""><b>D</b></p><p style=""position: absolute; top: 30px; right: 30px; text-align:right; font-size:50px"""">N = 3</p>","D",0,73,385.599999999627,1,"agree",16,17,17,16,17,"67","female","yes instructions clear","Strong Agreement","Strong Agreement","Very Strong Agreement","Moderate Agreement","Very Strong Agreement","Strong Agreement","Moderate Agreement","Very Strong Agreement","Moderate Agreement","Very Strong Agreement","Strong Agreement","Strong Agreement","Very Strong Agreement","Strong Agreement","Slight Agreement","Strong Agreement","Very Strong Agreement","Strong Agreement"
"37","A2C9Z4YND5DX0E:3WMINLGALC9R9FEL3HQVSDEWZ92CAG","1",1,1,3,"5","<p style=""font-size:100px""><b>v</b></p><p style=""position: absolute; top: 30px; right: 30px; text-align:right; font-size:50px"""">N = 3</p>","v",0,NA,NA,0,"agree",16,17,17,16,17,"67","female","yes instructions clear","Strong Agreement","Strong Agreement","Very Strong Agreement","Moderate Agreement","Very Strong Agreement","Strong Agreement","Moderate Agreement","Very Strong Agreement","Moderate Agreement","Very Strong Agreement","Strong Agreement","Strong Agreement","Very Strong Agreement","Strong Agreement","Slight Agreement","Strong Agreement","Very Strong Agreement","Strong Agreement"
"38","A2C9Z4YND5DX0E:3WMINLGALC9R9FEL3HQVSDEWZ92CAG","1",1,2,3,"5","<p style=""font-size:100px""><b>G</b></p><p style=""position: absolute; top: 30px; right: 30px; text-align:right; font-size:50px"""">N = 3</p>","G",0,73,103,1,"agree",16,17,17,16,17,"67","female","yes instructions clear","Strong Agreement","Strong Agreement","Very Strong Agreement","Moderate Agreement","Very Strong Agreement","Strong Agreement","Moderate Agreement","Very Strong Agreement","Moderate Agreement","Very Strong Agreement","Strong Agreement","Strong Agreement","Very Strong Agreement","Strong Agreement","Slight Agreement","Strong Agreement","Very Strong Agreement","Strong Agreement"
"39","A2C9Z4YND5DX0E:3WMINLGALC9R9FEL3HQVSDEWZ92CAG","1",1,3,3,"5","<p style=""font-size:100px""><b>p</b></p><p style=""position: absolute; top: 30px; right: 30px; text-align:right; font-size:50px"""">N = 3</p>","p",0,73,707.799999998882,1,"agree",16,17,17,16,17,"67","female","yes instructions clear","Strong Agreement","Strong Agreement","Very Strong Agreement","Moderate Agreement","Very Strong Agreement","Strong Agreement","Moderate Agreement","Very Strong Agreement","Moderate Agreement","Very Strong Agreement","Strong Agreement","Strong Agreement","Very Strong Agreement","Strong Agreement","Slight Agreement","Strong Agreement","Very Strong Agreement","Strong Agreement"
"40","A2C9Z4YND5DX0E:3WMINLGALC9R9FEL3HQVSDEWZ92CAG","1",1,4,3,"5","<p style=""font-size:100px""><b>t</b></p><p style=""position: absolute; top: 30px; right: 30px; text-align:right; font-size:50px"""">N = 3</p>","t",0,69,179.10000000149,0,"agree",16,17,17,16,17,"67","female","yes instructions clear","Strong Agreement","Strong Agreement","Very Strong Agreement","Moderate Agreement","Very Strong Agreement","Strong Agreement","Moderate Agreement","Very Strong Agreement","Moderate Agreement","Very Strong Agreement","Strong Agreement","Strong Agreement","Very Strong Agreement","Strong Agreement","Slight Agreement","Strong Agreement","Very Strong Agreement","Strong Agreement"
"41","A2C9Z4YND5DX0E:3WMINLGALC9R9FEL3HQVSDEWZ92CAG","1",1,5,3,"5","<p style=""font-size:100px""><b>t</b></p><p style=""position: absolute; top: 30px; right: 30px; text-align:right; font-size:50px"""">N = 3</p>","t",0,69,635.10000000149,0,"agree",16,17,17,16,17,"67","female","yes instructions clear","Strong Agreement","Strong Agreement","Very Strong Agreement","Moderate Agreement","Very Strong Agreement","Strong Agreement","Moderate Agreement","Very Strong Agreement","Moderate Agreement","Very Strong Agreement","Strong Agreement","Strong Agreement","Very Strong Agreement","Strong Agreement","Slight Agreement","Strong Agreement","Very Strong Agreement","Strong Agreement"
"42","A2C9Z4YND5DX0E:3WMINLGALC9R9FEL3HQVSDEWZ92CAG","1",1,6,3,"5","<p style=""font-size:100px""><b>B</b></p><p style=""position: absolute; top: 30px; right: 30px; text-align:right; font-size:50px"""">N = 3</p>","B",0,69,402.400000000373,0,"agree",16,17,17,16,17,"67","female","yes instructions clear","Strong Agreement","Strong Agreement","Very Strong Agreement","Moderate Agreement","Very Strong Agreement","Strong Agreement","Moderate Agreement","Very Strong Agreement","Moderate Agreement","Very Strong Agreement","Strong Agreement","Strong Agreement","Very Strong Agreement","Strong Agreement","Slight Agreement","Strong Agreement","Very Strong Agreement","Strong Agreement"
"43","A2C9Z4YND5DX0E:3WMINLGALC9R9FEL3HQVSDEWZ92CAG","1",1,7,3,"5","<p style=""font-size:100px""><b>t</b></p><p style=""position: absolute; top: 30px; right: 30px; text-align:right; font-size:50px"""">N = 3</p>","t",0,NA,NA,0,"agree",16,17,17,16,17,"67","female","yes instructions clear","Strong Agreement","Strong Agreement","Very Strong Agreement","Moderate Agreement","Very Strong Agreement","Strong Agreement","Moderate Agreement","Very Strong Agreement","Moderate Agreement","Very Strong Agreement","Strong Agreement","Strong Agreement","Very Strong Agreement","Strong Agreement","Slight Agreement","Strong Agreement","Very Strong Agreement","Strong Agreement"
"44","A2C9Z4YND5DX0E:3WMINLGALC9R9FEL3HQVSDEWZ92CAG","1",1,8,3,"5","<p style=""font-size:100px""><b>t</b></p><p style=""position: absolute; top: 30px; right: 30px; text-align:right; font-size:50px"""">N = 3</p>","t",0,73,244.599999999627,1,"agree",16,17,17,16,17,"67","female","yes instructions clear","Strong Agreement","Strong Agreement","Very Strong Agreement","Moderate Agreement","Very Strong Agreement","Strong Agreement","Moderate Agreement","Very Strong Agreement","Moderate Agreement","Very Strong Agreement","Strong Agreement","Strong Agreement","Very Strong Agreement","Strong Agreement","Slight Agreement","Strong Agreement","Very Strong Agreement","Strong Agreement"
"45","A2C9Z4YND5DX0E:3WMINLGALC9R9FEL3HQVSDEWZ92CAG","1",1,9,3,"5","<p style=""font-size:100px""><b>D</b></p><p style=""position: absolute; top: 30px; right: 30px; text-align:right; font-size:50px"""">N = 3</p>","D",0,73,392,1,"agree",16,17,17,16,17,"67","female","yes instructions clear","Strong Agreement","Strong Agreement","Very Strong Agreement","Moderate Agreement","Very Strong Agreement","Strong Agreement","Moderate Agreement","Very Strong Agreement","Moderate Agreement","Very Strong Agreement","Strong Agreement","Strong Agreement","Very Strong Agreement","Strong Agreement","Slight Agreement","Strong Agreement","Very Strong Agreement","Strong Agreement"
"46","A2C9Z4YND5DX0E:3WMINLGALC9R9FEL3HQVSDEWZ92CAG","1",1,10,3,"5","<p style=""font-size:100px""><b>t</b></p><p style=""position: absolute; top: 30px; right: 30px; text-align:right; font-size:50px"""">N = 3</p>","t",0,73,782.299999998882,1,"agree",16,17,17,16,17,"67","female","yes instructions clear","Strong Agreement","Strong Agreement","Very Strong Agreement","Moderate Agreement","Very Strong Agreement","Strong Agreement","Moderate Agreement","Very Strong Agreement","Moderate Agreement","Very Strong Agreement","Strong Agreement","Strong Agreement","Very Strong Agreement","Strong Agreement","Slight Agreement","Strong Agreement","Very Strong Agreement","Strong Agreement"
"47","A2C9Z4YND5DX0E:3WMINLGALC9R9FEL3HQVSDEWZ92CAG","1",1,11,3,"5","<p style=""font-size:100px""><b>v</b></p><p style=""position: absolute; top: 30px; right: 30px; text-align:right; font-size:50px"""">N = 3</p>","v",0,73,301.099999999627,1,"agree",16,17,17,16,17,"67","female","yes instructions clear","Strong Agreement","Strong Agreement","Very Strong Agreement","Moderate Agreement","Very Strong Agreement","Strong Agreement","Moderate Agreement","Very Strong Agreement","Moderate Agreement","Very Strong Agreement","Strong Agreement","Strong Agreement","Very Strong Agreement","Strong Agreement","Slight Agreement","Strong Agreement","Very Strong Agreement","Strong Agreement"
"48","A2C9Z4YND5DX0E:3WMINLGALC9R9FEL3HQVSDEWZ92CAG","1",1,12,3,"5","<p style=""font-size:100px""><b>D</b></p><p style=""position: absolute; top: 30px; right: 30px; text-align:right; font-size:50px"""">N = 3</p>","D",0,73,601.599999999627,1,"agree",16,17,17,16,17,"67","female","yes instructions clear","Strong Agreement","Strong Agreement","Very Strong Agreement","Moderate Agreement","Very Strong Agreement","Strong Agreement","Moderate Agreement","Very Strong Agreement","Moderate Agreement","Very Strong Agreement","Strong Agreement","Strong Agreement","Very Strong Agreement","Strong Agreement","Slight Agreement","Strong Agreement","Very Strong Agreement","Strong Agreement"
"49","A2C9Z4YND5DX0E:3WMINLGALC9R9FEL3HQVSDEWZ92CAG","1",2,1,1,"50","<p style=""font-size:100px""><b>G</b></p><p style=""position: absolute; top: 30px; right: 30px; text-align:right; font-size:50px"""">N = 1</p>","G",0,NA,NA,0,"agree",17,17,17,18,18,"67","female","yes instructions clear","Strong Agreement","Strong Agreement","Very Strong Agreement","Moderate Agreement","Very Strong Agreement","Strong Agreement","Moderate Agreement","Very Strong Agreement","Moderate Agreement","Very Strong Agreement","Strong Agreement","Strong Agreement","Very Strong Agreement","Strong Agreement","Slight Agreement","Strong Agreement","Very Strong Agreement","Strong Agreement"
"50","A2C9Z4YND5DX0E:3WMINLGALC9R9FEL3HQVSDEWZ92CAG","1",2,2,1,"50","<p style=""font-size:100px""><b>V</b></p><p style=""position: absolute; top: 30px; right: 30px; text-align:right; font-size:50px"""">N = 1</p>","V",0,NA,NA,0,"agree",17,17,17,18,18,"67","female","yes instructions clear","Strong Agreement","Strong Agreement","Very Strong Agreement","Moderate Agreement","Very Strong Agreement","Strong Agreement","Moderate Agreement","Very Strong Agreement","Moderate Agreement","Very Strong Agreement","Strong Agreement","Strong Agreement","Very Strong Agreement","Strong Agreement","Slight Agreement","Strong Agreement","Very Strong Agreement","Strong Agreement"
"51","A2C9Z4YND5DX0E:3WMINLGALC9R9FEL3HQVSDEWZ92CAG","1",2,3,1,"50","<p style=""font-size:100px""><b>T</b></p><p style=""position: absolute; top: 30px; right: 30px; text-align:right; font-size:50px"""">N = 1</p>","T",0,NA,NA,0,"agree",17,17,17,18,18,"67","female","yes instructions clear","Strong Agreement","Strong Agreement","Very Strong Agreement","Moderate Agreement","Very Strong Agreement","Strong Agreement","Moderate Agreement","Very Strong Agreement","Moderate Agreement","Very Strong Agreement","Strong Agreement","Strong Agreement","Very Strong Agreement","Strong Agreement","Slight Agreement","Strong Agreement","Very Strong Agreement","Strong Agreement"
"52","A2C9Z4YND5DX0E:3WMINLGALC9R9FEL3HQVSDEWZ92CAG","1",2,4,1,"50","<p style=""font-size:100px""><b>v</b></p><p style=""position: absolute; top: 30px; right: 30px; text-align:right; font-size:50px"""">N = 1</p>","v",0,NA,NA,0,"agree",17,17,17,18,18,"67","female","yes instructions clear","Strong Agreement","Strong Agreement","Very Strong Agreement","Moderate Agreement","Very Strong Agreement","Strong Agreement","Moderate Agreement","Very Strong Agreement","Moderate Agreement","Very Strong Agreement","Strong Agreement","Strong Agreement","Very Strong Agreement","Strong Agreement","Slight Agreement","Strong Agreement","Very Strong Agreement","Strong Agreement"
"53","A2C9Z4YND5DX0E:3WMINLGALC9R9FEL3HQVSDEWZ92CAG","1",2,5,1,"50","<p style=""font-size:100px""><b>v</b></p><p style=""position: absolute; top: 30px; right: 30px; text-align:right; font-size:50px"""">N = 1</p>","v",0,69,21.0999999996275,0,"agree",17,17,17,18,18,"67","female","yes instructions clear","Strong Agreement","Strong Agreement","Very Strong Agreement","Moderate Agreement","Very Strong Agreement","Strong Agreement","Moderate Agreement","Very Strong Agreement","Moderate Agreement","Very Strong Agreement","Strong Agreement","Strong Agreement","Very Strong Agreement","Strong Agreement","Slight Agreement","Strong Agreement","Very Strong Agreement","Strong Agreement"
"54","A2C9Z4YND5DX0E:3WMINLGALC9R9FEL3HQVSDEWZ92CAG","1",2,6,1,"50","<p style=""font-size:100px""><b>v</b></p><p style=""position: absolute; top: 30px; right: 30px; text-align:right; font-size:50px"""">N = 1</p>","v",0,73,206.099999999627,1,"agree",17,17,17,18,18,"67","female","yes instructions clear","Strong Agreement","Strong Agreement","Very Strong Agreement","Moderate Agreement","Very Strong Agreement","Strong Agreement","Moderate Agreement","Very Strong Agreement","Moderate Agreement","Very Strong Agreement","Strong Agreement","Strong Agreement","Very Strong Agreement","Strong Agreement","Slight Agreement","Strong Agreement","Very Strong Agreement","Strong Agreement"
"55","A2C9Z4YND5DX0E:3WMINLGALC9R9FEL3HQVSDEWZ92CAG","1",2,7,1,"50","<p style=""font-size:100px""><b>v</b></p><p style=""position: absolute; top: 30px; right: 30px; text-align:right; font-size:50px"""">N = 1</p>","v",0,NA,NA,0,"agree",17,17,17,18,18,"67","female","yes instructions clear","Strong Agreement","Strong Agreement","Very Strong Agreement","Moderate Agreement","Very Strong Agreement","Strong Agreement","Moderate Agreement","Very Strong Agreement","Moderate Agreement","Very Strong Agreement","Strong Agreement","Strong Agreement","Very Strong Agreement","Strong Agreement","Slight Agreement","Strong Agreement","Very Strong Agreement","Strong Agreement"
"56","A2C9Z4YND5DX0E:3WMINLGALC9R9FEL3HQVSDEWZ92CAG","1",2,8,1,"50","<p style=""font-size:100px""><b>T</b></p><p style=""position: absolute; top: 30px; right: 30px; text-align:right; font-size:50px"""">N = 1</p>","T",0,NA,NA,0,"agree",17,17,17,18,18,"67","female","yes instructions clear","Strong Agreement","Strong Agreement","Very Strong Agreement","Moderate Agreement","Very Strong Agreement","Strong Agreement","Moderate Agreement","Very Strong Agreement","Moderate Agreement","Very Strong Agreement","Strong Agreement","Strong Agreement","Very Strong Agreement","Strong Agreement","Slight Agreement","Strong Agreement","Very Strong Agreement","Strong Agreement"
"57","A2C9Z4YND5DX0E:3WMINLGALC9R9FEL3HQVSDEWZ92CAG","1",2,9,1,"50","<p style=""font-size:100px""><b>P</b></p><p style=""position: absolute; top: 30px; right: 30px; text-align:right; font-size:50px"""">N = 1</p>","P",0,NA,NA,0,"agree",17,17,17,18,18,"67","female","yes instructions clear","Strong Agreement","Strong Agreement","Very Strong Agreement","Moderate Agreement","Very Strong Agreement","Strong Agreement","Moderate Agreement","Very Strong Agreement","Moderate Agreement","Very Strong Agreement","Strong Agreement","Strong Agreement","Very Strong Agreement","Strong Agreement","Slight Agreement","Strong Agreement","Very Strong Agreement","Strong Agreement"
"58","A2C9Z4YND5DX0E:3WMINLGALC9R9FEL3HQVSDEWZ92CAG","1",2,10,1,"50","<p style=""font-size:100px""><b>D</b></p><p style=""position: absolute; top: 30px; right: 30px; text-align:right; font-size:50px"""">N = 1</p>","D",0,NA,NA,0,"agree",17,17,17,18,18,"67","female","yes instructions clear","Strong Agreement","Strong Agreement","Very Strong Agreement","Moderate Agreement","Very Strong Agreement","Strong Agreement","Moderate Agreement","Very Strong Agreement","Moderate Agreement","Very Strong Agreement","Strong Agreement","Strong Agreement","Very Strong Agreement","Strong Agreement","Slight Agreement","Strong Agreement","Very Strong Agreement","Strong Agreement"
"59","A2C9Z4YND5DX0E:3WMINLGALC9R9FEL3HQVSDEWZ92CAG","1",2,11,1,"50","<p style=""font-size:100px""><b>B</b></p><p style=""position: absolute; top: 30px; right: 30px; text-align:right; font-size:50px"""">N = 1</p>","B",0,NA,NA,0,"agree",17,17,17,18,18,"67","female","yes instructions clear","Strong Agreement","Strong Agreement","Very Strong Agreement","Moderate Agreement","Very Strong Agreement","Strong Agreement","Moderate Agreement","Very Strong Agreement","Moderate Agreement","Very Strong Agreement","Strong Agreement","Strong Agreement","Very Strong Agreement","Strong Agreement","Slight Agreement","Strong Agreement","Very Strong Agreement","Strong Agreement"
"60","A2C9Z4YND5DX0E:3WMINLGALC9R9FEL3HQVSDEWZ92CAG","1",2,12,1,"50","<p style=""font-size:100px""><b>B</b></p><p style=""position: absolute; top: 30px; right: 30px; text-align:right; font-size:50px"""">N = 1</p>","B",0,NA,NA,0,"agree",17,17,17,18,18,"67","female","yes instructions clear","Strong Agreement","Strong Agreement","Very Strong Agreement","Moderate Agreement","Very Strong Agreement","Strong Agreement","Moderate Agreement","Very Strong Agreement","Moderate Agreement","Very Strong Agreement","Strong Agreement","Strong Agreement","Very Strong Agreement","Strong Agreement","Slight Agreement","Strong Agreement","Very Strong Agreement","Strong Agreement"
"61","A2C9Z4YND5DX0E:3WMINLGALC9R9FEL3HQVSDEWZ92CAG","1",3,1,1,"50","<p style=""font-size:100px""><b>T</b></p><p style=""position: absolute; top: 30px; right: 30px; text-align:right; font-size:50px"""">N = 1</p>","T",0,NA,NA,0,"agree",16,18,17,17,17,"67","female","yes instructions clear","Strong Agreement","Strong Agreement","Very Strong Agreement","Moderate Agreement","Very Strong Agreement","Strong Agreement","Moderate Agreement","Very Strong Agreement","Moderate Agreement","Very Strong Agreement","Strong Agreement","Strong Agreement","Very Strong Agreement","Strong Agreement","Slight Agreement","Strong Agreement","Very Strong Agreement","Strong Agreement"
"62","A2C9Z4YND5DX0E:3WMINLGALC9R9FEL3HQVSDEWZ92CAG","1",3,2,1,"50","<p style=""font-size:100px""><b>T</b></p><p style=""position: absolute; top: 30px; right: 30px; text-align:right; font-size:50px"""">N = 1</p>","T",0,NA,NA,0,"agree",16,18,17,17,17,"67","female","yes instructions clear","Strong Agreement","Strong Agreement","Very Strong Agreement","Moderate Agreement","Very Strong Agreement","Strong Agreement","Moderate Agreement","Very Strong Agreement","Moderate Agreement","Very Strong Agreement","Strong Agreement","Strong Agreement","Very Strong Agreement","Strong Agreement","Slight Agreement","Strong Agreement","Very Strong Agreement","Strong Agreement"
"63","A2C9Z4YND5DX0E:3WMINLGALC9R9FEL3HQVSDEWZ92CAG","1",3,3,1,"50","<p style=""font-size:100px""><b>b</b></p><p style=""position: absolute; top: 30px; right: 30px; text-align:right; font-size:50px"""">N = 1</p>","b",0,NA,NA,0,"agree",16,18,17,17,17,"67","female","yes instructions clear","Strong Agreement","Strong Agreement","Very Strong Agreement","Moderate Agreement","Very Strong Agreement","Strong Agreement","Moderate Agreement","Very Strong Agreement","Moderate Agreement","Very Strong Agreement","Strong Agreement","Strong Agreement","Very Strong Agreement","Strong Agreement","Slight Agreement","Strong Agreement","Very Strong Agreement","Strong Agreement"
"64","A2C9Z4YND5DX0E:3WMINLGALC9R9FEL3HQVSDEWZ92CAG","1",3,4,1,"50","<p style=""font-size:100px""><b>T</b></p><p style=""position: absolute; top: 30px; right: 30px; text-align:right; font-size:50px"""">N = 1</p>","T",0,NA,NA,0,"agree",16,18,17,17,17,"67","female","yes instructions clear","Strong Agreement","Strong Agreement","Very Strong Agreement","Moderate Agreement","Very Strong Agreement","Strong Agreement","Moderate Agreement","Very Strong Agreement","Moderate Agreement","Very Strong Agreement","Strong Agreement","Strong Agreement","Very Strong Agreement","Strong Agreement","Slight Agreement","Strong Agreement","Very Strong Agreement","Strong Agreement"
"65","A2C9Z4YND5DX0E:3WMINLGALC9R9FEL3HQVSDEWZ92CAG","1",3,5,1,"50","<p style=""font-size:100px""><b>T</b></p><p style=""position: absolute; top: 30px; right: 30px; text-align:right; font-size:50px"""">N = 1</p>","T",0,NA,NA,0,"agree",16,18,17,17,17,"67","female","yes instructions clear","Strong Agreement","Strong Agreement","Very Strong Agreement","Moderate Agreement","Very Strong Agreement","Strong Agreement","Moderate Agreement","Very Strong Agreement","Moderate Agreement","Very Strong Agreement","Strong Agreement","Strong Agreement","Very Strong Agreement","Strong Agreement","Slight Agreement","Strong Agreement","Very Strong Agreement","Strong Agreement"
"66","A2C9Z4YND5DX0E:3WMINLGALC9R9FEL3HQVSDEWZ92CAG","1",3,6,1,"50","<p style=""font-size:100px""><b>D</b></p><p style=""position: absolute; top: 30px; right: 30px; text-align:right; font-size:50px"""">N = 1</p>","D",0,NA,NA,0,"agree",16,18,17,17,17,"67","female","yes instructions clear","Strong Agreement","Strong Agreement","Very Strong Agreement","Moderate Agreement","Very Strong Agreement","Strong Agreement","Moderate Agreement","Very Strong Agreement","Moderate Agreement","Very Strong Agreement","Strong Agreement","Strong Agreement","Very Strong Agreement","Strong Agreement","Slight Agreement","Strong Agreement","Very Strong Agreement","Strong Agreement"
"67","A2C9Z4YND5DX0E:3WMINLGALC9R9FEL3HQVSDEWZ92CAG","1",3,7,1,"50","<p style=""font-size:100px""><b>p</b></p><p style=""position: absolute; top: 30px; right: 30px; text-align:right; font-size:50px"""">N = 1</p>","p",0,NA,NA,0,"agree",16,18,17,17,17,"67","female","yes instructions clear","Strong Agreement","Strong Agreement","Very Strong Agreement","Moderate Agreement","Very Strong Agreement","Strong Agreement","Moderate Agreement","Very Strong Agreement","Moderate Agreement","Very Strong Agreement","Strong Agreement","Strong Agreement","Very Strong Agreement","Strong Agreement","Slight Agreement","Strong Agreement","Very Strong Agreement","Strong Agreement"
"68","A2C9Z4YND5DX0E:3WMINLGALC9R9FEL3HQVSDEWZ92CAG","1",3,8,1,"50","<p style=""font-size:100px""><b>G</b></p><p style=""position: absolute; top: 30px; right: 30px; text-align:right; font-size:50px"""">N = 1</p>","G",0,NA,NA,0,"agree",16,18,17,17,17,"67","female","yes instructions clear","Strong Agreement","Strong Agreement","Very Strong Agreement","Moderate Agreement","Very Strong Agreement","Strong Agreement","Moderate Agreement","Very Strong Agreement","Moderate Agreement","Very Strong Agreement","Strong Agreement","Strong Agreement","Very Strong Agreement","Strong Agreement","Slight Agreement","Strong Agreement","Very Strong Agreement","Strong Agreement"
"69","A2C9Z4YND5DX0E:3WMINLGALC9R9FEL3HQVSDEWZ92CAG","1",3,9,1,"50","<p style=""font-size:100px""><b>G</b></p><p style=""position: absolute; top: 30px; right: 30px; text-align:right; font-size:50px"""">N = 1</p>","G",0,NA,NA,0,"agree",16,18,17,17,17,"67","female","yes instructions clear","Strong Agreement","Strong Agreement","Very Strong Agreement","Moderate Agreement","Very Strong Agreement","Strong Agreement","Moderate Agreement","Very Strong Agreement","Moderate Agreement","Very Strong Agreement","Strong Agreement","Strong Agreement","Very Strong Agreement","Strong Agreement","Slight Agreement","Strong Agreement","Very Strong Agreement","Strong Agreement"
"70","A2C9Z4YND5DX0E:3WMINLGALC9R9FEL3HQVSDEWZ92CAG","1",3,10,1,"50","<p style=""font-size:100px""><b>D</b></p><p style=""position: absolute; top: 30px; right: 30px; text-align:right; font-size:50px"""">N = 1</p>","D",0,NA,NA,0,"agree",16,18,17,17,17,"67","female","yes instructions clear","Strong Agreement","Strong Agreement","Very Strong Agreement","Moderate Agreement","Very Strong Agreement","Strong Agreement","Moderate Agreement","Very Strong Agreement","Moderate Agreement","Very Strong Agreement","Strong Agreement","Strong Agreement","Very Strong Agreement","Strong Agreement","Slight Agreement","Strong Agreement","Very Strong Agreement","Strong Agreement"
"71","A2C9Z4YND5DX0E:3WMINLGALC9R9FEL3HQVSDEWZ92CAG","1",3,11,1,"50","<p style=""font-size:100px""><b>b</b></p><p style=""position: absolute; top: 30px; right: 30px; text-align:right; font-size:50px"""">N = 1</p>","b",0,NA,NA,0,"agree",16,18,17,17,17,"67","female","yes instructions clear","Strong Agreement","Strong Agreement","Very Strong Agreement","Moderate Agreement","Very Strong Agreement","Strong Agreement","Moderate Agreement","Very Strong Agreement","Moderate Agreement","Very Strong Agreement","Strong Agreement","Strong Agreement","Very Strong Agreement","Strong Agreement","Slight Agreement","Strong Agreement","Very Strong Agreement","Strong Agreement"
"72","A2C9Z4YND5DX0E:3WMINLGALC9R9FEL3HQVSDEWZ92CAG","1",3,12,1,"50","<p style=""font-size:100px""><b>b</b></p><p style=""position: absolute; top: 30px; right: 30px; text-align:right; font-size:50px"""">N = 1</p>","b",0,NA,NA,0,"agree",16,18,17,17,17,"67","female","yes instructions clear","Strong Agreement","Strong Agreement","Very Strong Agreement","Moderate Agreement","Very Strong Agreement","Strong Agreement","Moderate Agreement","Very Strong Agreement","Moderate Agreement","Very Strong Agreement","Strong Agreement","Strong Agreement","Very Strong Agreement","Strong Agreement","Slight Agreement","Strong Agreement","Very Strong Agreement","Strong Agreement"
"73","A2C9Z4YND5DX0E:3WMINLGALC9R9FEL3HQVSDEWZ92CAG","1",4,1,2,"5","<p style=""font-size:100px""><b>V</b></p><p style=""position: absolute; top: 30px; right: 30px; text-align:right; font-size:50px"""">N = 2</p>","V",0,NA,NA,0,"agree",16,18,16,17,16,"67","female","yes instructions clear","Strong Agreement","Strong Agreement","Very Strong Agreement","Moderate Agreement","Very Strong Agreement","Strong Agreement","Moderate Agreement","Very Strong Agreement","Moderate Agreement","Very Strong Agreement","Strong Agreement","Strong Agreement","Very Strong Agreement","Strong Agreement","Slight Agreement","Strong Agreement","Very Strong Agreement","Strong Agreement"
"74","A2C9Z4YND5DX0E:3WMINLGALC9R9FEL3HQVSDEWZ92CAG","1",4,2,2,"5","<p style=""font-size:100px""><b>D</b></p><p style=""position: absolute; top: 30px; right: 30px; text-align:right; font-size:50px"""">N = 2</p>","D",0,NA,NA,0,"agree",16,18,16,17,16,"67","female","yes instructions clear","Strong Agreement","Strong Agreement","Very Strong Agreement","Moderate Agreement","Very Strong Agreement","Strong Agreement","Moderate Agreement","Very Strong Agreement","Moderate Agreement","Very Strong Agreement","Strong Agreement","Strong Agreement","Very Strong Agreement","Strong Agreement","Slight Agreement","Strong Agreement","Very Strong Agreement","Strong Agreement"
"75","A2C9Z4YND5DX0E:3WMINLGALC9R9FEL3HQVSDEWZ92CAG","1",4,3,2,"5","<p style=""font-size:100px""><b>V</b></p><p style=""position: absolute; top: 30px; right: 30px; text-align:right; font-size:50px"""">N = 2</p>","V",0,NA,NA,0,"agree",16,18,16,17,16,"67","female","yes instructions clear","Strong Agreement","Strong Agreement","Very Strong Agreement","Moderate Agreement","Very Strong Agreement","Strong Agreement","Moderate Agreement","Very Strong Agreement","Moderate Agreement","Very Strong Agreement","Strong Agreement","Strong Agreement","Very Strong Agreement","Strong Agreement","Slight Agreement","Strong Agreement","Very Strong Agreement","Strong Agreement"
"76","A2C9Z4YND5DX0E:3WMINLGALC9R9FEL3HQVSDEWZ92CAG","1",4,4,2,"5","<p style=""font-size:100px""><b>P</b></p><p style=""position: absolute; top: 30px; right: 30px; text-align:right; font-size:50px"""">N = 2</p>","P",0,NA,NA,0,"agree",16,18,16,17,16,"67","female","yes instructions clear","Strong Agreement","Strong Agreement","Very Strong Agreement","Moderate Agreement","Very Strong Agreement","Strong Agreement","Moderate Agreement","Very Strong Agreement","Moderate Agreement","Very Strong Agreement","Strong Agreement","Strong Agreement","Very Strong Agreement","Strong Agreement","Slight Agreement","Strong Agreement","Very Strong Agreement","Strong Agreement"
"77","A2C9Z4YND5DX0E:3WMINLGALC9R9FEL3HQVSDEWZ92CAG","1",4,5,2,"5","<p style=""font-size:100px""><b>T</b></p><p style=""position: absolute; top: 30px; right: 30px; text-align:right; font-size:50px"""">N = 2</p>","T",0,NA,NA,0,"agree",16,18,16,17,16,"67","female","yes instructions clear","Strong Agreement","Strong Agreement","Very Strong Agreement","Moderate Agreement","Very Strong Agreement","Strong Agreement","Moderate Agreement","Very Strong Agreement","Moderate Agreement","Very Strong Agreement","Strong Agreement","Strong Agreement","Very Strong Agreement","Strong Agreement","Slight Agreement","Strong Agreement","Very Strong Agreement","Strong Agreement"
"78","A2C9Z4YND5DX0E:3WMINLGALC9R9FEL3HQVSDEWZ92CAG","1",4,6,2,"5","<p style=""font-size:100px""><b>T</b></p><p style=""position: absolute; top: 30px; right: 30px; text-align:right; font-size:50px"""">N = 2</p>","T",0,NA,NA,0,"agree",16,18,16,17,16,"67","female","yes instructions clear","Strong Agreement","Strong Agreement","Very Strong Agreement","Moderate Agreement","Very Strong Agreement","Strong Agreement","Moderate Agreement","Very Strong Agreement","Moderate Agreement","Very Strong Agreement","Strong Agreement","Strong Agreement","Very Strong Agreement","Strong Agreement","Slight Agreement","Strong Agreement","Very Strong Agreement","Strong Agreement"
"79","A2C9Z4YND5DX0E:3WMINLGALC9R9FEL3HQVSDEWZ92CAG","1",4,7,2,"5","<p style=""font-size:100px""><b>V</b></p><p style=""position: absolute; top: 30px; right: 30px; text-align:right; font-size:50px"""">N = 2</p>","V",0,NA,NA,0,"agree",16,18,16,17,16,"67","female","yes instructions clear","Strong Agreement","Strong Agreement","Very Strong Agreement","Moderate Agreement","Very Strong Agreement","Strong Agreement","Moderate Agreement","Very Strong Agreement","Moderate Agreement","Very Strong Agreement","Strong Agreement","Strong Agreement","Very Strong Agreement","Strong Agreement","Slight Agreement","Strong Agreement","Very Strong Agreement","Strong Agreement"
"80","A2C9Z4YND5DX0E:3WMINLGALC9R9FEL3HQVSDEWZ92CAG","1",4,8,2,"5","<p style=""font-size:100px""><b>T</b></p><p style=""position: absolute; top: 30px; right: 30px; text-align:right; font-size:50px"""">N = 2</p>","T",0,NA,NA,0,"agree",16,18,16,17,16,"67","female","yes instructions clear","Strong Agreement","Strong Agreement","Very Strong Agreement","Moderate Agreement","Very Strong Agreement","Strong Agreement","Moderate Agreement","Very Strong Agreement","Moderate Agreement","Very Strong Agreement","Strong Agreement","Strong Agreement","Very Strong Agreement","Strong Agreement","Slight Agreement","Strong Agreement","Very Strong Agreement","Strong Agreement"
"81","A2C9Z4YND5DX0E:3WMINLGALC9R9FEL3HQVSDEWZ92CAG","1",4,9,2,"5","<p style=""font-size:100px""><b>B</b></p><p style=""position: absolute; top: 30px; right: 30px; text-align:right; font-size:50px"""">N = 2</p>","B",0,NA,NA,0,"agree",16,18,16,17,16,"67","female","yes instructions clear","Strong Agreement","Strong Agreement","Very Strong Agreement","Moderate Agreement","Very Strong Agreement","Strong Agreement","Moderate Agreement","Very Strong Agreement","Moderate Agreement","Very Strong Agreement","Strong Agreement","Strong Agreement","Very Strong Agreement","Strong Agreement","Slight Agreement","Strong Agreement","Very Strong Agreement","Strong Agreement"
"82","A2C9Z4YND5DX0E:3WMINLGALC9R9FEL3HQVSDEWZ92CAG","1",4,10,2,"5","<p style=""font-size:100px""><b>T</b></p><p style=""position: absolute; top: 30px; right: 30px; text-align:right; font-size:50px"""">N = 2</p>","T",0,NA,NA,0,"agree",16,18,16,17,16,"67","female","yes instructions clear","Strong Agreement","Strong Agreement","Very Strong Agreement","Moderate Agreement","Very Strong Agreement","Strong Agreement","Moderate Agreement","Very Strong Agreement","Moderate Agreement","Very Strong Agreement","Strong Agreement","Strong Agreement","Very Strong Agreement","Strong Agreement","Slight Agreement","Strong Agreement","Very Strong Agreement","Strong Agreement"
"83","A2C9Z4YND5DX0E:3WMINLGALC9R9FEL3HQVSDEWZ92CAG","1",4,11,2,"5","<p style=""font-size:100px""><b>B</b></p><p style=""position: absolute; top: 30px; right: 30px; text-align:right; font-size:50px"""">N = 2</p>","B",0,NA,NA,0,"agree",16,18,16,17,16,"67","female","yes instructions clear","Strong Agreement","Strong Agreement","Very Strong Agreement","Moderate Agreement","Very Strong Agreement","Strong Agreement","Moderate Agreement","Very Strong Agreement","Moderate Agreement","Very Strong Agreement","Strong Agreement","Strong Agreement","Very Strong Agreement","Strong Agreement","Slight Agreement","Strong Agreement","Very Strong Agreement","Strong Agreement"
"84","A2C9Z4YND5DX0E:3WMINLGALC9R9FEL3HQVSDEWZ92CAG","1",4,12,2,"5","<p style=""font-size:100px""><b>B</b></p><p style=""position: absolute; top: 30px; right: 30px; text-align:right; font-size:50px"""">N = 2</p>","B",0,NA,NA,0,"agree",16,18,16,17,16,"67","female","yes instructions clear","Strong Agreement","Strong Agreement","Very Strong Agreement","Moderate Agreement","Very Strong Agreement","Strong Agreement","Moderate Agreement","Very Strong Agreement","Moderate Agreement","Very Strong Agreement","Strong Agreement","Strong Agreement","Very Strong Agreement","Strong Agreement","Slight Agreement","Strong Agreement","Very Strong Agreement","Strong Agreement"
"85","A2C9Z4YND5DX0E:3WMINLGALC9R9FEL3HQVSDEWZ92CAG","1",5,1,2,"50","<p style=""font-size:100px""><b>v</b></p><p style=""position: absolute; top: 30px; right: 30px; text-align:right; font-size:50px"""">N = 2</p>","v",0,NA,NA,0,"agree",17,18,16,17,15,"67","female","yes instructions clear","Strong Agreement","Strong Agreement","Very Strong Agreement","Moderate Agreement","Very Strong Agreement","Strong Agreement","Moderate Agreement","Very Strong Agreement","Moderate Agreement","Very Strong Agreement","Strong Agreement","Strong Agreement","Very Strong Agreement","Strong Agreement","Slight Agreement","Strong Agreement","Very Strong Agreement","Strong Agreement"
"86","A2C9Z4YND5DX0E:3WMINLGALC9R9FEL3HQVSDEWZ92CAG","1",5,2,2,"50","<p style=""font-size:100px""><b>P</b></p><p style=""position: absolute; top: 30px; right: 30px; text-align:right; font-size:50px"""">N = 2</p>","P",0,NA,NA,0,"agree",17,18,16,17,15,"67","female","yes instructions clear","Strong Agreement","Strong Agreement","Very Strong Agreement","Moderate Agreement","Very Strong Agreement","Strong Agreement","Moderate Agreement","Very Strong Agreement","Moderate Agreement","Very Strong Agreement","Strong Agreement","Strong Agreement","Very Strong Agreement","Strong Agreement","Slight Agreement","Strong Agreement","Very Strong Agreement","Strong Agreement"
"87","A2C9Z4YND5DX0E:3WMINLGALC9R9FEL3HQVSDEWZ92CAG","1",5,3,2,"50","<p style=""font-size:100px""><b>v</b></p><p style=""position: absolute; top: 30px; right: 30px; text-align:right; font-size:50px"""">N = 2</p>","v",0,NA,NA,0,"agree",17,18,16,17,15,"67","female","yes instructions clear","Strong Agreement","Strong Agreement","Very Strong Agreement","Moderate Agreement","Very Strong Agreement","Strong Agreement","Moderate Agreement","Very Strong Agreement","Moderate Agreement","Very Strong Agreement","Strong Agreement","Strong Agreement","Very Strong Agreement","Strong Agreement","Slight Agreement","Strong Agreement","Very Strong Agreement","Strong Agreement"
"88","A2C9Z4YND5DX0E:3WMINLGALC9R9FEL3HQVSDEWZ92CAG","1",5,4,2,"50","<p style=""font-size:100px""><b>V</b></p><p style=""position: absolute; top: 30px; right: 30px; text-align:right; font-size:50px"""">N = 2</p>","V",0,NA,NA,0,"agree",17,18,16,17,15,"67","female","yes instructions clear","Strong Agreement","Strong Agreement","Very Strong Agreement","Moderate Agreement","Very Strong Agreement","Strong Agreement","Moderate Agreement","Very Strong Agreement","Moderate Agreement","Very Strong Agreement","Strong Agreement","Strong Agreement","Very Strong Agreement","Strong Agreement","Slight Agreement","Strong Agreement","Very Strong Agreement","Strong Agreement"
"89","A2C9Z4YND5DX0E:3WMINLGALC9R9FEL3HQVSDEWZ92CAG","1",5,5,2,"50","<p style=""font-size:100px""><b>v</b></p><p style=""position: absolute; top: 30px; right: 30px; text-align:right; font-size:50px"""">N = 2</p>","v",0,NA,NA,0,"agree",17,18,16,17,15,"67","female","yes instructions clear","Strong Agreement","Strong Agreement","Very Strong Agreement","Moderate Agreement","Very Strong Agreement","Strong Agreement","Moderate Agreement","Very Strong Agreement","Moderate Agreement","Very Strong Agreement","Strong Agreement","Strong Agreement","Very Strong Agreement","Strong Agreement","Slight Agreement","Strong Agreement","Very Strong Agreement","Strong Agreement"
"90","A2C9Z4YND5DX0E:3WMINLGALC9R9FEL3HQVSDEWZ92CAG","1",5,6,2,"50","<p style=""font-size:100px""><b>T</b></p><p style=""position: absolute; top: 30px; right: 30px; text-align:right; font-size:50px"""">N = 2</p>","T",0,NA,NA,0,"agree",17,18,16,17,15,"67","female","yes instructions clear","Strong Agreement","Strong Agreement","Very Strong Agreement","Moderate Agreement","Very Strong Agreement","Strong Agreement","Moderate Agreement","Very Strong Agreement","Moderate Agreement","Very Strong Agreement","Strong Agreement","Strong Agreement","Very Strong Agreement","Strong Agreement","Slight Agreement","Strong Agreement","Very Strong Agreement","Strong Agreement"
"91","A2C9Z4YND5DX0E:3WMINLGALC9R9FEL3HQVSDEWZ92CAG","1",5,7,2,"50","<p style=""font-size:100px""><b>v</b></p><p style=""position: absolute; top: 30px; right: 30px; text-align:right; font-size:50px"""">N = 2</p>","v",0,69,346.599999999627,0,"agree",17,18,16,17,15,"67","female","yes instructions clear","Strong Agreement","Strong Agreement","Very Strong Agreement","Moderate Agreement","Very Strong Agreement","Strong Agreement","Moderate Agreement","Very Strong Agreement","Moderate Agreement","Very Strong Agreement","Strong Agreement","Strong Agreement","Very Strong Agreement","Strong Agreement","Slight Agreement","Strong Agreement","Very Strong Agreement","Strong Agreement"
"92","A2C9Z4YND5DX0E:3WMINLGALC9R9FEL3HQVSDEWZ92CAG","1",5,8,2,"50","<p style=""font-size:100px""><b>b</b></p><p style=""position: absolute; top: 30px; right: 30px; text-align:right; font-size:50px"""">N = 2</p>","b",0,69,678.5,0,"agree",17,18,16,17,15,"67","female","yes instructions clear","Strong Agreement","Strong Agreement","Very Strong Agreement","Moderate Agreement","Very Strong Agreement","Strong Agreement","Moderate Agreement","Very Strong Agreement","Moderate Agreement","Very Strong Agreement","Strong Agreement","Strong Agreement","Very Strong Agreement","Strong Agreement","Slight Agreement","Strong Agreement","Very Strong Agreement","Strong Agreement"
"93","A2C9Z4YND5DX0E:3WMINLGALC9R9FEL3HQVSDEWZ92CAG","1",5,9,2,"50","<p style=""font-size:100px""><b>v</b></p><p style=""position: absolute; top: 30px; right: 30px; text-align:right; font-size:50px"""">N = 2</p>","v",0,73,684.199999999255,1,"agree",17,18,16,17,15,"67","female","yes instructions clear","Strong Agreement","Strong Agreement","Very Strong Agreement","Moderate Agreement","Very Strong Agreement","Strong Agreement","Moderate Agreement","Very Strong Agreement","Moderate Agreement","Very Strong Agreement","Strong Agreement","Strong Agreement","Very Strong Agreement","Strong Agreement","Slight Agreement","Strong Agreement","Very Strong Agreement","Strong Agreement"
"94","A2C9Z4YND5DX0E:3WMINLGALC9R9FEL3HQVSDEWZ92CAG","1",5,10,2,"50","<p style=""font-size:100px""><b>p</b></p><p style=""position: absolute; top: 30px; right: 30px; text-align:right; font-size:50px"""">N = 2</p>","p",0,73,597.799999998882,1,"agree",17,18,16,17,15,"67","female","yes instructions clear","Strong Agreement","Strong Agreement","Very Strong Agreement","Moderate Agreement","Very Strong Agreement","Strong Agreement","Moderate Agreement","Very Strong Agreement","Moderate Agreement","Very Strong Agreement","Strong Agreement","Strong Agreement","Very Strong Agreement","Strong Agreement","Slight Agreement","Strong Agreement","Very Strong Agreement","Strong Agreement"
"95","A2C9Z4YND5DX0E:3WMINLGALC9R9FEL3HQVSDEWZ92CAG","1",5,11,2,"50","<p style=""font-size:100px""><b>B</b></p><p style=""position: absolute; top: 30px; right: 30px; text-align:right; font-size:50px"""">N = 2</p>","B",0,73,651.099999999627,1,"agree",17,18,16,17,15,"67","female","yes instructions clear","Strong Agreement","Strong Agreement","Very Strong Agreement","Moderate Agreement","Very Strong Agreement","Strong Agreement","Moderate Agreement","Very Strong Agreement","Moderate Agreement","Very Strong Agreement","Strong Agreement","Strong Agreement","Very Strong Agreement","Strong Agreement","Slight Agreement","Strong Agreement","Very Strong Agreement","Strong Agreement"
"96","A2C9Z4YND5DX0E:3WMINLGALC9R9FEL3HQVSDEWZ92CAG","1",5,12,2,"50","<p style=""font-size:100px""><b>B</b></p><p style=""position: absolute; top: 30px; right: 30px; text-align:right; font-size:50px"""">N = 2</p>","B",0,NA,NA,0,"agree",17,18,16,17,15,"67","female","yes instructions clear","Strong Agreement","Strong Agreement","Very Strong Agreement","Moderate Agreement","Very Strong Agreement","Strong Agreement","Moderate Agreement","Very Strong Agreement","Moderate Agreement","Very Strong Agreement","Strong Agreement","Strong Agreement","Very Strong Agreement","Strong Agreement","Slight Agreement","Strong Agreement","Very Strong Agreement","Strong Agreement"
"97","A2C9Z4YND5DX0E:3WMINLGALC9R9FEL3HQVSDEWZ92CAG","1",6,1,3,"50","<p style=""font-size:100px""><b>B</b></p><p style=""position: absolute; top: 30px; right: 30px; text-align:right; font-size:50px"""">N = 3</p>","B",0,NA,NA,0,"agree",15,19,19,15,19,"67","female","yes instructions clear","Strong Agreement","Strong Agreement","Very Strong Agreement","Moderate Agreement","Very Strong Agreement","Strong Agreement","Moderate Agreement","Very Strong Agreement","Moderate Agreement","Very Strong Agreement","Strong Agreement","Strong Agreement","Very Strong Agreement","Strong Agreement","Slight Agreement","Strong Agreement","Very Strong Agreement","Strong Agreement"
"98","A2C9Z4YND5DX0E:3WMINLGALC9R9FEL3HQVSDEWZ92CAG","1",6,2,3,"50","<p style=""font-size:100px""><b>b</b></p><p style=""position: absolute; top: 30px; right: 30px; text-align:right; font-size:50px"""">N = 3</p>","b",0,NA,NA,0,"agree",15,19,19,15,19,"67","female","yes instructions clear","Strong Agreement","Strong Agreement","Very Strong Agreement","Moderate Agreement","Very Strong Agreement","Strong Agreement","Moderate Agreement","Very Strong Agreement","Moderate Agreement","Very Strong Agreement","Strong Agreement","Strong Agreement","Very Strong Agreement","Strong Agreement","Slight Agreement","Strong Agreement","Very Strong Agreement","Strong Agreement"
"99","A2C9Z4YND5DX0E:3WMINLGALC9R9FEL3HQVSDEWZ92CAG","1",6,3,3,"50","<p style=""font-size:100px""><b>V</b></p><p style=""position: absolute; top: 30px; right: 30px; text-align:right; font-size:50px"""">N = 3</p>","V",0,NA,NA,0,"agree",15,19,19,15,19,"67","female","yes instructions clear","Strong Agreement","Strong Agreement","Very Strong Agreement","Moderate Agreement","Very Strong Agreement","Strong Agreement","Moderate Agreement","Very Strong Agreement","Moderate Agreement","Very Strong Agreement","Strong Agreement","Strong Agreement","Very Strong Agreement","Strong Agreement","Slight Agreement","Strong Agreement","Very Strong Agreement","Strong Agreement"
"100","A2C9Z4YND5DX0E:3WMINLGALC9R9FEL3HQVSDEWZ92CAG","1",6,4,3,"50","<p style=""font-size:100px""><b>p</b></p><p style=""position: absolute; top: 30px; right: 30px; text-align:right; font-size:50px"""">N = 3</p>","p",0,NA,NA,0,"agree",15,19,19,15,19,"67","female","yes instructions clear","Strong Agreement","Strong Agreement","Very Strong Agreement","Moderate Agreement","Very Strong Agreement","Strong Agreement","Moderate Agreement","Very Strong Agreement","Moderate Agreement","Very Strong Agreement","Strong Agreement","Strong Agreement","Very Strong Agreement","Strong Agreement","Slight Agreement","Strong Agreement","Very Strong Agreement","Strong Agreement"
"101","A2C9Z4YND5DX0E:3WMINLGALC9R9FEL3HQVSDEWZ92CAG","1",6,5,3,"50","<p style=""font-size:100px""><b>g</b></p><p style=""position: absolute; top: 30px; right: 30px; text-align:right; font-size:50px"""">N = 3</p>","g",0,NA,NA,0,"agree",15,19,19,15,19,"67","female","yes instructions clear","Strong Agreement","Strong Agreement","Very Strong Agreement","Moderate Agreement","Very Strong Agreement","Strong Agreement","Moderate Agreement","Very Strong Agreement","Moderate Agreement","Very Strong Agreement","Strong Agreement","Strong Agreement","Very Strong Agreement","Strong Agreement","Slight Agreement","Strong Agreement","Very Strong Agreement","Strong Agreement"
"102","A2C9Z4YND5DX0E:3WMINLGALC9R9FEL3HQVSDEWZ92CAG","1",6,6,3,"50","<p style=""font-size:100px""><b>V</b></p><p style=""position: absolute; top: 30px; right: 30px; text-align:right; font-size:50px"""">N = 3</p>","V",0,NA,NA,0,"agree",15,19,19,15,19,"67","female","yes instructions clear","Strong Agreement","Strong Agreement","Very Strong Agreement","Moderate Agreement","Very Strong Agreement","Strong Agreement","Moderate Agreement","Very Strong Agreement","Moderate Agreement","Very Strong Agreement","Strong Agreement","Strong Agreement","Very Strong Agreement","Strong Agreement","Slight Agreement","Strong Agreement","Very Strong Agreement","Strong Agreement"
"103","A2C9Z4YND5DX0E:3WMINLGALC9R9FEL3HQVSDEWZ92CAG","1",6,7,3,"50","<p style=""font-size:100px""><b>p</b></p><p style=""position: absolute; top: 30px; right: 30px; text-align:right; font-size:50px"""">N = 3</p>","p",0,NA,NA,0,"agree",15,19,19,15,19,"67","female","yes instructions clear","Strong Agreement","Strong Agreement","Very Strong Agreement","Moderate Agreement","Very Strong Agreement","Strong Agreement","Moderate Agreement","Very Strong Agreement","Moderate Agreement","Very Strong Agreement","Strong Agreement","Strong Agreement","Very Strong Agreement","Strong Agreement","Slight Agreement","Strong Agreement","Very Strong Agreement","Strong Agreement"
"104","A2C9Z4YND5DX0E:3WMINLGALC9R9FEL3HQVSDEWZ92CAG","1",6,8,3,"50","<p style=""font-size:100px""><b>T</b></p><p style=""position: absolute; top: 30px; right: 30px; text-align:right; font-size:50px"""">N = 3</p>","T",0,NA,NA,0,"agree",15,19,19,15,19,"67","female","yes instructions clear","Strong Agreement","Strong Agreement","Very Strong Agreement","Moderate Agreement","Very Strong Agreement","Strong Agreement","Moderate Agreement","Very Strong Agreement","Moderate Agreement","Very Strong Agreement","Strong Agreement","Strong Agreement","Very Strong Agreement","Strong Agreement","Slight Agreement","Strong Agreement","Very Strong Agreement","Strong Agreement"
"105","A2C9Z4YND5DX0E:3WMINLGALC9R9FEL3HQVSDEWZ92CAG","1",6,9,3,"50","<p style=""font-size:100px""><b>V</b></p><p style=""position: absolute; top: 30px; right: 30px; text-align:right; font-size:50px"""">N = 3</p>","V",0,NA,NA,0,"agree",15,19,19,15,19,"67","female","yes instructions clear","Strong Agreement","Strong Agreement","Very Strong Agreement","Moderate Agreement","Very Strong Agreement","Strong Agreement","Moderate Agreement","Very Strong Agreement","Moderate Agreement","Very Strong Agreement","Strong Agreement","Strong Agreement","Very Strong Agreement","Strong Agreement","Slight Agreement","Strong Agreement","Very Strong Agreement","Strong Agreement"
"106","A2C9Z4YND5DX0E:3WMINLGALC9R9FEL3HQVSDEWZ92CAG","1",6,10,3,"50","<p style=""font-size:100px""><b>V</b></p><p style=""position: absolute; top: 30px; right: 30px; text-align:right; font-size:50px"""">N = 3</p>","V",0,NA,NA,0,"agree",15,19,19,15,19,"67","female","yes instructions clear","Strong Agreement","Strong Agreement","Very Strong Agreement","Moderate Agreement","Very Strong Agreement","Strong Agreement","Moderate Agreement","Very Strong Agreement","Moderate Agreement","Very Strong Agreement","Strong Agreement","Strong Agreement","Very Strong Agreement","Strong Agreement","Slight Agreement","Strong Agreement","Very Strong Agreement","Strong Agreement"
"107","A2C9Z4YND5DX0E:3WMINLGALC9R9FEL3HQVSDEWZ92CAG","1",6,11,3,"50","<p style=""font-size:100px""><b>v</b></p><p style=""position: absolute; top: 30px; right: 30px; text-align:right; font-size:50px"""">N = 3</p>","v",0,NA,NA,0,"agree",15,19,19,15,19,"67","female","yes instructions clear","Strong Agreement","Strong Agreement","Very Strong Agreement","Moderate Agreement","Very Strong Agreement","Strong Agreement","Moderate Agreement","Very Strong Agreement","Moderate Agreement","Very Strong Agreement","Strong Agreement","Strong Agreement","Very Strong Agreement","Strong Agreement","Slight Agreement","Strong Agreement","Very Strong Agreement","Strong Agreement"
"108","A2C9Z4YND5DX0E:3WMINLGALC9R9FEL3HQVSDEWZ92CAG","1",6,12,3,"50","<p style=""font-size:100px""><b>V</b></p><p style=""position: absolute; top: 30px; right: 30px; text-align:right; font-size:50px"""">N = 3</p>","V",0,NA,NA,0,"agree",15,19,19,15,19,"67","female","yes instructions clear","Strong Agreement","Strong Agreement","Very Strong Agreement","Moderate Agreement","Very Strong Agreement","Strong Agreement","Moderate Agreement","Very Strong Agreement","Moderate Agreement","Very Strong Agreement","Strong Agreement","Strong Agreement","Very Strong Agreement","Strong Agreement","Slight Agreement","Strong Agreement","Very Strong Agreement","Strong Agreement"
"109","A2C9Z4YND5DX0E:3WMINLGALC9R9FEL3HQVSDEWZ92CAG","2",7,1,2,"50","<p style=""font-size:100px""><b>d</b></p><p style=""position: absolute; top: 30px; right: 30px; text-align:right; font-size:50px"""">N = 2</p>","d",0,NA,NA,0,"agree",16,18,16,18,11,"67","female","yes instructions clear","Strong Agreement","Strong Agreement","Very Strong Agreement","Moderate Agreement","Very Strong Agreement","Strong Agreement","Moderate Agreement","Very Strong Agreement","Moderate Agreement","Very Strong Agreement","Strong Agreement","Strong Agreement","Very Strong Agreement","Strong Agreement","Slight Agreement","Strong Agreement","Very Strong Agreement","Strong Agreement"
"110","A2C9Z4YND5DX0E:3WMINLGALC9R9FEL3HQVSDEWZ92CAG","2",7,2,2,"50","<p style=""font-size:100px""><b>g</b></p><p style=""position: absolute; top: 30px; right: 30px; text-align:right; font-size:50px"""">N = 2</p>","g",0,NA,NA,0,"agree",16,18,16,18,11,"67","female","yes instructions clear","Strong Agreement","Strong Agreement","Very Strong Agreement","Moderate Agreement","Very Strong Agreement","Strong Agreement","Moderate Agreement","Very Strong Agreement","Moderate Agreement","Very Strong Agreement","Strong Agreement","Strong Agreement","Very Strong Agreement","Strong Agreement","Slight Agreement","Strong Agreement","Very Strong Agreement","Strong Agreement"
"111","A2C9Z4YND5DX0E:3WMINLGALC9R9FEL3HQVSDEWZ92CAG","2",7,3,2,"50","<p style=""font-size:100px""><b>V</b></p><p style=""position: absolute; top: 30px; right: 30px; text-align:right; font-size:50px"""">N = 2</p>","V",0,NA,NA,0,"agree",16,18,16,18,11,"67","female","yes instructions clear","Strong Agreement","Strong Agreement","Very Strong Agreement","Moderate Agreement","Very Strong Agreement","Strong Agreement","Moderate Agreement","Very Strong Agreement","Moderate Agreement","Very Strong Agreement","Strong Agreement","Strong Agreement","Very Strong Agreement","Strong Agreement","Slight Agreement","Strong Agreement","Very Strong Agreement","Strong Agreement"
"112","A2C9Z4YND5DX0E:3WMINLGALC9R9FEL3HQVSDEWZ92CAG","2",7,4,2,"50","<p style=""font-size:100px""><b>g</b></p><p style=""position: absolute; top: 30px; right: 30px; text-align:right; font-size:50px"""">N = 2</p>","g",0,69,386.099999999627,0,"agree",16,18,16,18,11,"67","female","yes instructions clear","Strong Agreement","Strong Agreement","Very Strong Agreement","Moderate Agreement","Very Strong Agreement","Strong Agreement","Moderate Agreement","Very Strong Agreement","Moderate Agreement","Very Strong Agreement","Strong Agreement","Strong Agreement","Very Strong Agreement","Strong Agreement","Slight Agreement","Strong Agreement","Very Strong Agreement","Strong Agreement"
"113","A2C9Z4YND5DX0E:3WMINLGALC9R9FEL3HQVSDEWZ92CAG","2",7,5,2,"50","<p style=""font-size:100px""><b>D</b></p><p style=""position: absolute; top: 30px; right: 30px; text-align:right; font-size:50px"""">N = 2</p>","D",0,69,288.900000000373,0,"agree",16,18,16,18,11,"67","female","yes instructions clear","Strong Agreement","Strong Agreement","Very Strong Agreement","Moderate Agreement","Very Strong Agreement","Strong Agreement","Moderate Agreement","Very Strong Agreement","Moderate Agreement","Very Strong Agreement","Strong Agreement","Strong Agreement","Very Strong Agreement","Strong Agreement","Slight Agreement","Strong Agreement","Very Strong Agreement","Strong Agreement"
"114","A2C9Z4YND5DX0E:3WMINLGALC9R9FEL3HQVSDEWZ92CAG","2",7,6,2,"50","<p style=""font-size:100px""><b>g</b></p><p style=""position: absolute; top: 30px; right: 30px; text-align:right; font-size:50px"""">N = 2</p>","g",0,73,119.39999999851,1,"agree",16,18,16,18,11,"67","female","yes instructions clear","Strong Agreement","Strong Agreement","Very Strong Agreement","Moderate Agreement","Very Strong Agreement","Strong Agreement","Moderate Agreement","Very Strong Agreement","Moderate Agreement","Very Strong Agreement","Strong Agreement","Strong Agreement","Very Strong Agreement","Strong Agreement","Slight Agreement","Strong Agreement","Very Strong Agreement","Strong Agreement"
"115","A2C9Z4YND5DX0E:3WMINLGALC9R9FEL3HQVSDEWZ92CAG","2",7,7,2,"50","<p style=""font-size:100px""><b>b</b></p><p style=""position: absolute; top: 30px; right: 30px; text-align:right; font-size:50px"""">N = 2</p>","b",0,69,920.900000000373,0,"agree",16,18,16,18,11,"67","female","yes instructions clear","Strong Agreement","Strong Agreement","Very Strong Agreement","Moderate Agreement","Very Strong Agreement","Strong Agreement","Moderate Agreement","Very Strong Agreement","Moderate Agreement","Very Strong Agreement","Strong Agreement","Strong Agreement","Very Strong Agreement","Strong Agreement","Slight Agreement","Strong Agreement","Very Strong Agreement","Strong Agreement"
"116","A2C9Z4YND5DX0E:3WMINLGALC9R9FEL3HQVSDEWZ92CAG","2",7,8,2,"50","<p style=""font-size:100px""><b>V</b></p><p style=""position: absolute; top: 30px; right: 30px; text-align:right; font-size:50px"""">N = 2</p>","V",0,73,478.700000001118,1,"agree",16,18,16,18,11,"67","female","yes instructions clear","Strong Agreement","Strong Agreement","Very Strong Agreement","Moderate Agreement","Very Strong Agreement","Strong Agreement","Moderate Agreement","Very Strong Agreement","Moderate Agreement","Very Strong Agreement","Strong Agreement","Strong Agreement","Very Strong Agreement","Strong Agreement","Slight Agreement","Strong Agreement","Very Strong Agreement","Strong Agreement"
"117","A2C9Z4YND5DX0E:3WMINLGALC9R9FEL3HQVSDEWZ92CAG","2",7,9,2,"50","<p style=""font-size:100px""><b>b</b></p><p style=""position: absolute; top: 30px; right: 30px; text-align:right; font-size:50px"""">N = 2</p>","b",0,NA,NA,0,"agree",16,18,16,18,11,"67","female","yes instructions clear","Strong Agreement","Strong Agreement","Very Strong Agreement","Moderate Agreement","Very Strong Agreement","Strong Agreement","Moderate Agreement","Very Strong Agreement","Moderate Agreement","Very Strong Agreement","Strong Agreement","Strong Agreement","Very Strong Agreement","Strong Agreement","Slight Agreement","Strong Agreement","Very Strong Agreement","Strong Agreement"
"118","A2C9Z4YND5DX0E:3WMINLGALC9R9FEL3HQVSDEWZ92CAG","2",7,10,2,"50","<p style=""font-size:100px""><b>B</b></p><p style=""position: absolute; top: 30px; right: 30px; text-align:right; font-size:50px"""">N = 2</p>","B",0,69,375.5,0,"agree",16,18,16,18,11,"67","female","yes instructions clear","Strong Agreement","Strong Agreement","Very Strong Agreement","Moderate Agreement","Very Strong Agreement","Strong Agreement","Moderate Agreement","Very Strong Agreement","Moderate Agreement","Very Strong Agreement","Strong Agreement","Strong Agreement","Very Strong Agreement","Strong Agreement","Slight Agreement","Strong Agreement","Very Strong Agreement","Strong Agreement"
"119","A2C9Z4YND5DX0E:3WMINLGALC9R9FEL3HQVSDEWZ92CAG","2",7,11,2,"50","<p style=""font-size:100px""><b>b</b></p><p style=""position: absolute; top: 30px; right: 30px; text-align:right; font-size:50px"""">N = 2</p>","b",0,69,976.799999998882,0,"agree",16,18,16,18,11,"67","female","yes instructions clear","Strong Agreement","Strong Agreement","Very Strong Agreement","Moderate Agreement","Very Strong Agreement","Strong Agreement","Moderate Agreement","Very Strong Agreement","Moderate Agreement","Very Strong Agreement","Strong Agreement","Strong Agreement","Very Strong Agreement","Strong Agreement","Slight Agreement","Strong Agreement","Very Strong Agreement","Strong Agreement"
"120","A2C9Z4YND5DX0E:3WMINLGALC9R9FEL3HQVSDEWZ92CAG","2",7,12,2,"50","<p style=""font-size:100px""><b>D</b></p><p style=""position: absolute; top: 30px; right: 30px; text-align:right; font-size:50px"""">N = 2</p>","D",0,73,107.800000000745,1,"agree",16,18,16,18,11,"67","female","yes instructions clear","Strong Agreement","Strong Agreement","Very Strong Agreement","Moderate Agreement","Very Strong Agreement","Strong Agreement","Moderate Agreement","Very Strong Agreement","Moderate Agreement","Very Strong Agreement","Strong Agreement","Strong Agreement","Very Strong Agreement","Strong Agreement","Slight Agreement","Strong Agreement","Very Strong Agreement","Strong Agreement"
"121","A2C9Z4YND5DX0E:3WMINLGALC9R9FEL3HQVSDEWZ92CAG","2",8,1,2,"50","<p style=""font-size:100px""><b>p</b></p><p style=""position: absolute; top: 30px; right: 30px; text-align:right; font-size:50px"""">N = 2</p>","p",0,69,594.200000001118,0,"agree",16,15,17,17,16,"67","female","yes instructions clear","Strong Agreement","Strong Agreement","Very Strong Agreement","Moderate Agreement","Very Strong Agreement","Strong Agreement","Moderate Agreement","Very Strong Agreement","Moderate Agreement","Very Strong Agreement","Strong Agreement","Strong Agreement","Very Strong Agreement","Strong Agreement","Slight Agreement","Strong Agreement","Very Strong Agreement","Strong Agreement"
"122","A2C9Z4YND5DX0E:3WMINLGALC9R9FEL3HQVSDEWZ92CAG","2",8,2,2,"50","<p style=""font-size:100px""><b>d</b></p><p style=""position: absolute; top: 30px; right: 30px; text-align:right; font-size:50px"""">N = 2</p>","d",0,69,559.400000000373,0,"agree",16,15,17,17,16,"67","female","yes instructions clear","Strong Agreement","Strong Agreement","Very Strong Agreement","Moderate Agreement","Very Strong Agreement","Strong Agreement","Moderate Agreement","Very Strong Agreement","Moderate Agreement","Very Strong Agreement","Strong Agreement","Strong Agreement","Very Strong Agreement","Strong Agreement","Slight Agreement","Strong Agreement","Very Strong Agreement","Strong Agreement"
"123","A2C9Z4YND5DX0E:3WMINLGALC9R9FEL3HQVSDEWZ92CAG","2",8,3,2,"50","<p style=""font-size:100px""><b>p</b></p><p style=""position: absolute; top: 30px; right: 30px; text-align:right; font-size:50px"""">N = 2</p>","p",0,69,689,0,"agree",16,15,17,17,16,"67","female","yes instructions clear","Strong Agreement","Strong Agreement","Very Strong Agreement","Moderate Agreement","Very Strong Agreement","Strong Agreement","Moderate Agreement","Very Strong Agreement","Moderate Agreement","Very Strong Agreement","Strong Agreement","Strong Agreement","Very Strong Agreement","Strong Agreement","Slight Agreement","Strong Agreement","Very Strong Agreement","Strong Agreement"
"124","A2C9Z4YND5DX0E:3WMINLGALC9R9FEL3HQVSDEWZ92CAG","2",8,4,2,"50","<p style=""font-size:100px""><b>d</b></p><p style=""position: absolute; top: 30px; right: 30px; text-align:right; font-size:50px"""">N = 2</p>","d",0,NA,NA,0,"agree",16,15,17,17,16,"67","female","yes instructions clear","Strong Agreement","Strong Agreement","Very Strong Agreement","Moderate Agreement","Very Strong Agreement","Strong Agreement","Moderate Agreement","Very Strong Agreement","Moderate Agreement","Very Strong Agreement","Strong Agreement","Strong Agreement","Very Strong Agreement","Strong Agreement","Slight Agreement","Strong Agreement","Very Strong Agreement","Strong Agreement"
"125","A2C9Z4YND5DX0E:3WMINLGALC9R9FEL3HQVSDEWZ92CAG","2",8,5,2,"50","<p style=""font-size:100px""><b>b</b></p><p style=""position: absolute; top: 30px; right: 30px; text-align:right; font-size:50px"""">N = 2</p>","b",0,NA,NA,0,"agree",16,15,17,17,16,"67","female","yes instructions clear","Strong Agreement","Strong Agreement","Very Strong Agreement","Moderate Agreement","Very Strong Agreement","Strong Agreement","Moderate Agreement","Very Strong Agreement","Moderate Agreement","Very Strong Agreement","Strong Agreement","Strong Agreement","Very Strong Agreement","Strong Agreement","Slight Agreement","Strong Agreement","Very Strong Agreement","Strong Agreement"
"126","A2C9Z4YND5DX0E:3WMINLGALC9R9FEL3HQVSDEWZ92CAG","2",8,6,2,"50","<p style=""font-size:100px""><b>v</b></p><p style=""position: absolute; top: 30px; right: 30px; text-align:right; font-size:50px"""">N = 2</p>","v",0,69,740.199999999255,0,"agree",16,15,17,17,16,"67","female","yes instructions clear","Strong Agreement","Strong Agreement","Very Strong Agreement","Moderate Agreement","Very Strong Agreement","Strong Agreement","Moderate Agreement","Very Strong Agreement","Moderate Agreement","Very Strong Agreement","Strong Agreement","Strong Agreement","Very Strong Agreement","Strong Agreement","Slight Agreement","Strong Agreement","Very Strong Agreement","Strong Agreement"
"127","A2C9Z4YND5DX0E:3WMINLGALC9R9FEL3HQVSDEWZ92CAG","2",8,7,2,"50","<p style=""font-size:100px""><b>p</b></p><p style=""position: absolute; top: 30px; right: 30px; text-align:right; font-size:50px"""">N = 2</p>","p",0,NA,NA,0,"agree",16,15,17,17,16,"67","female","yes instructions clear","Strong Agreement","Strong Agreement","Very Strong Agreement","Moderate Agreement","Very Strong Agreement","Strong Agreement","Moderate Agreement","Very Strong Agreement","Moderate Agreement","Very Strong Agreement","Strong Agreement","Strong Agreement","Very Strong Agreement","Strong Agreement","Slight Agreement","Strong Agreement","Very Strong Agreement","Strong Agreement"
"128","A2C9Z4YND5DX0E:3WMINLGALC9R9FEL3HQVSDEWZ92CAG","2",8,8,2,"50","<p style=""font-size:100px""><b>g</b></p><p style=""position: absolute; top: 30px; right: 30px; text-align:right; font-size:50px"""">N = 2</p>","g",0,73,120.200000001118,1,"agree",16,15,17,17,16,"67","female","yes instructions clear","Strong Agreement","Strong Agreement","Very Strong Agreement","Moderate Agreement","Very Strong Agreement","Strong Agreement","Moderate Agreement","Very Strong Agreement","Moderate Agreement","Very Strong Agreement","Strong Agreement","Strong Agreement","Very Strong Agreement","Strong Agreement","Slight Agreement","Strong Agreement","Very Strong Agreement","Strong Agreement"
"129","A2C9Z4YND5DX0E:3WMINLGALC9R9FEL3HQVSDEWZ92CAG","2",8,9,2,"50","<p style=""font-size:100px""><b>G</b></p><p style=""position: absolute; top: 30px; right: 30px; text-align:right; font-size:50px"""">N = 2</p>","G",0,73,826.199999999255,1,"agree",16,15,17,17,16,"67","female","yes instructions clear","Strong Agreement","Strong Agreement","Very Strong Agreement","Moderate Agreement","Very Strong Agreement","Strong Agreement","Moderate Agreement","Very Strong Agreement","Moderate Agreement","Very Strong Agreement","Strong Agreement","Strong Agreement","Very Strong Agreement","Strong Agreement","Slight Agreement","Strong Agreement","Very Strong Agreement","Strong Agreement"
"130","A2C9Z4YND5DX0E:3WMINLGALC9R9FEL3HQVSDEWZ92CAG","2",8,10,2,"50","<p style=""font-size:100px""><b>g</b></p><p style=""position: absolute; top: 30px; right: 30px; text-align:right; font-size:50px"""">N = 2</p>","g",0,69,173.400000000373,0,"agree",16,15,17,17,16,"67","female","yes instructions clear","Strong Agreement","Strong Agreement","Very Strong Agreement","Moderate Agreement","Very Strong Agreement","Strong Agreement","Moderate Agreement","Very Strong Agreement","Moderate Agreement","Very Strong Agreement","Strong Agreement","Strong Agreement","Very Strong Agreement","Strong Agreement","Slight Agreement","Strong Agreement","Very Strong Agreement","Strong Agreement"
"131","A2C9Z4YND5DX0E:3WMINLGALC9R9FEL3HQVSDEWZ92CAG","2",8,11,2,"50","<p style=""font-size:100px""><b>V</b></p><p style=""position: absolute; top: 30px; right: 30px; text-align:right; font-size:50px"""">N = 2</p>","V",0,69,683.800000000745,0,"agree",16,15,17,17,16,"67","female","yes instructions clear","Strong Agreement","Strong Agreement","Very Strong Agreement","Moderate Agreement","Very Strong Agreement","Strong Agreement","Moderate Agreement","Very Strong Agreement","Moderate Agreement","Very Strong Agreement","Strong Agreement","Strong Agreement","Very Strong Agreement","Strong Agreement","Slight Agreement","Strong Agreement","Very Strong Agreement","Strong Agreement"
"132","A2C9Z4YND5DX0E:3WMINLGALC9R9FEL3HQVSDEWZ92CAG","2",8,12,2,"50","<p style=""font-size:100px""><b>g</b></p><p style=""position: absolute; top: 30px; right: 30px; text-align:right; font-size:50px"""">N = 2</p>","g",0,69,894.5,0,"agree",16,15,17,17,16,"67","female","yes instructions clear","Strong Agreement","Strong Agreement","Very Strong Agreement","Moderate Agreement","Very Strong Agreement","Strong Agreement","Moderate Agreement","Very Strong Agreement","Moderate Agreement","Very Strong Agreement","Strong Agreement","Strong Agreement","Very Strong Agreement","Strong Agreement","Slight Agreement","Strong Agreement","Very Strong Agreement","Strong Agreement"
"133","A2C9Z4YND5DX0E:3WMINLGALC9R9FEL3HQVSDEWZ92CAG","2",9,1,2,"5","<p style=""font-size:100px""><b>t</b></p><p style=""position: absolute; top: 30px; right: 30px; text-align:right; font-size:50px"""">N = 2</p>","t",0,69,494.599999999627,0,"agree",16,19,17,18,17,"67","female","yes instructions clear","Strong Agreement","Strong Agreement","Very Strong Agreement","Moderate Agreement","Very Strong Agreement","Strong Agreement","Moderate Agreement","Very Strong Agreement","Moderate Agreement","Very Strong Agreement","Strong Agreement","Strong Agreement","Very Strong Agreement","Strong Agreement","Slight Agreement","Strong Agreement","Very Strong Agreement","Strong Agreement"
"134","A2C9Z4YND5DX0E:3WMINLGALC9R9FEL3HQVSDEWZ92CAG","2",9,2,2,"5","<p style=""font-size:100px""><b>v</b></p><p style=""position: absolute; top: 30px; right: 30px; text-align:right; font-size:50px"""">N = 2</p>","v",0,73,241.799999998882,1,"agree",16,19,17,18,17,"67","female","yes instructions clear","Strong Agreement","Strong Agreement","Very Strong Agreement","Moderate Agreement","Very Strong Agreement","Strong Agreement","Moderate Agreement","Very Strong Agreement","Moderate Agreement","Very Strong Agreement","Strong Agreement","Strong Agreement","Very Strong Agreement","Strong Agreement","Slight Agreement","Strong Agreement","Very Strong Agreement","Strong Agreement"
"135","A2C9Z4YND5DX0E:3WMINLGALC9R9FEL3HQVSDEWZ92CAG","2",9,3,2,"5","<p style=""font-size:100px""><b>v</b></p><p style=""position: absolute; top: 30px; right: 30px; text-align:right; font-size:50px"""">N = 2</p>","v",0,73,577.5,1,"agree",16,19,17,18,17,"67","female","yes instructions clear","Strong Agreement","Strong Agreement","Very Strong Agreement","Moderate Agreement","Very Strong Agreement","Strong Agreement","Moderate Agreement","Very Strong Agreement","Moderate Agreement","Very Strong Agreement","Strong Agreement","Strong Agreement","Very Strong Agreement","Strong Agreement","Slight Agreement","Strong Agreement","Very Strong Agreement","Strong Agreement"
"136","A2C9Z4YND5DX0E:3WMINLGALC9R9FEL3HQVSDEWZ92CAG","2",9,4,2,"5","<p style=""font-size:100px""><b>B</b></p><p style=""position: absolute; top: 30px; right: 30px; text-align:right; font-size:50px"""">N = 2</p>","B",0,73,901.60000000149,1,"agree",16,19,17,18,17,"67","female","yes instructions clear","Strong Agreement","Strong Agreement","Very Strong Agreement","Moderate Agreement","Very Strong Agreement","Strong Agreement","Moderate Agreement","Very Strong Agreement","Moderate Agreement","Very Strong Agreement","Strong Agreement","Strong Agreement","Very Strong Agreement","Strong Agreement","Slight Agreement","Strong Agreement","Very Strong Agreement","Strong Agreement"
"137","A2C9Z4YND5DX0E:3WMINLGALC9R9FEL3HQVSDEWZ92CAG","2",9,5,2,"5","<p style=""font-size:100px""><b>B</b></p><p style=""position: absolute; top: 30px; right: 30px; text-align:right; font-size:50px"""">N = 2</p>","B",0,NA,NA,0,"agree",16,19,17,18,17,"67","female","yes instructions clear","Strong Agreement","Strong Agreement","Very Strong Agreement","Moderate Agreement","Very Strong Agreement","Strong Agreement","Moderate Agreement","Very Strong Agreement","Moderate Agreement","Very Strong Agreement","Strong Agreement","Strong Agreement","Very Strong Agreement","Strong Agreement","Slight Agreement","Strong Agreement","Very Strong Agreement","Strong Agreement"
"138","A2C9Z4YND5DX0E:3WMINLGALC9R9FEL3HQVSDEWZ92CAG","2",9,6,2,"5","<p style=""font-size:100px""><b>B</b></p><p style=""position: absolute; top: 30px; right: 30px; text-align:right; font-size:50px"""">N = 2</p>","B",0,69,524.199999999255,0,"agree",16,19,17,18,17,"67","female","yes instructions clear","Strong Agreement","Strong Agreement","Very Strong Agreement","Moderate Agreement","Very Strong Agreement","Strong Agreement","Moderate Agreement","Very Strong Agreement","Moderate Agreement","Very Strong Agreement","Strong Agreement","Strong Agreement","Very Strong Agreement","Strong Agreement","Slight Agreement","Strong Agreement","Very Strong Agreement","Strong Agreement"
"139","A2C9Z4YND5DX0E:3WMINLGALC9R9FEL3HQVSDEWZ92CAG","2",9,7,2,"5","<p style=""font-size:100px""><b>G</b></p><p style=""position: absolute; top: 30px; right: 30px; text-align:right; font-size:50px"""">N = 2</p>","G",0,73,15,1,"agree",16,19,17,18,17,"67","female","yes instructions clear","Strong Agreement","Strong Agreement","Very Strong Agreement","Moderate Agreement","Very Strong Agreement","Strong Agreement","Moderate Agreement","Very Strong Agreement","Moderate Agreement","Very Strong Agreement","Strong Agreement","Strong Agreement","Very Strong Agreement","Strong Agreement","Slight Agreement","Strong Agreement","Very Strong Agreement","Strong Agreement"
"140","A2C9Z4YND5DX0E:3WMINLGALC9R9FEL3HQVSDEWZ92CAG","2",9,8,2,"5","<p style=""font-size:100px""><b>B</b></p><p style=""position: absolute; top: 30px; right: 30px; text-align:right; font-size:50px"""">N = 2</p>","B",0,NA,NA,0,"agree",16,19,17,18,17,"67","female","yes instructions clear","Strong Agreement","Strong Agreement","Very Strong Agreement","Moderate Agreement","Very Strong Agreement","Strong Agreement","Moderate Agreement","Very Strong Agreement","Moderate Agreement","Very Strong Agreement","Strong Agreement","Strong Agreement","Very Strong Agreement","Strong Agreement","Slight Agreement","Strong Agreement","Very Strong Agreement","Strong Agreement"
"141","A2C9Z4YND5DX0E:3WMINLGALC9R9FEL3HQVSDEWZ92CAG","2",9,9,2,"5","<p style=""font-size:100px""><b>D</b></p><p style=""position: absolute; top: 30px; right: 30px; text-align:right; font-size:50px"""">N = 2</p>","D",0,69,671.89999999851,0,"agree",16,19,17,18,17,"67","female","yes instructions clear","Strong Agreement","Strong Agreement","Very Strong Agreement","Moderate Agreement","Very Strong Agreement","Strong Agreement","Moderate Agreement","Very Strong Agreement","Moderate Agreement","Very Strong Agreement","Strong Agreement","Strong Agreement","Very Strong Agreement","Strong Agreement","Slight Agreement","Strong Agreement","Very Strong Agreement","Strong Agreement"
"142","A2C9Z4YND5DX0E:3WMINLGALC9R9FEL3HQVSDEWZ92CAG","2",9,10,2,"5","<p style=""font-size:100px""><b>B</b></p><p style=""position: absolute; top: 30px; right: 30px; text-align:right; font-size:50px"""">N = 2</p>","B",0,69,851,0,"agree",16,19,17,18,17,"67","female","yes instructions clear","Strong Agreement","Strong Agreement","Very Strong Agreement","Moderate Agreement","Very Strong Agreement","Strong Agreement","Moderate Agreement","Very Strong Agreement","Moderate Agreement","Very Strong Agreement","Strong Agreement","Strong Agreement","Very Strong Agreement","Strong Agreement","Slight Agreement","Strong Agreement","Very Strong Agreement","Strong Agreement"
"143","A2C9Z4YND5DX0E:3WMINLGALC9R9FEL3HQVSDEWZ92CAG","2",9,11,2,"5","<p style=""font-size:100px""><b>t</b></p><p style=""position: absolute; top: 30px; right: 30px; text-align:right; font-size:50px"""">N = 2</p>","t",0,69,110.400000000373,0,"agree",16,19,17,18,17,"67","female","yes instructions clear","Strong Agreement","Strong Agreement","Very Strong Agreement","Moderate Agreement","Very Strong Agreement","Strong Agreement","Moderate Agreement","Very Strong Agreement","Moderate Agreement","Very Strong Agreement","Strong Agreement","Strong Agreement","Very Strong Agreement","Strong Agreement","Slight Agreement","Strong Agreement","Very Strong Agreement","Strong Agreement"
"144","A2C9Z4YND5DX0E:3WMINLGALC9R9FEL3HQVSDEWZ92CAG","2",9,12,2,"5","<p style=""font-size:100px""><b>B</b></p><p style=""position: absolute; top: 30px; right: 30px; text-align:right; font-size:50px"""">N = 2</p>","B",0,NA,NA,0,"agree",16,19,17,18,17,"67","female","yes instructions clear","Strong Agreement","Strong Agreement","Very Strong Agreement","Moderate Agreement","Very Strong Agreement","Strong Agreement","Moderate Agreement","Very Strong Agreement","Moderate Agreement","Very Strong Agreement","Strong Agreement","Strong Agreement","Very Strong Agreement","Strong Agreement","Slight Agreement","Strong Agreement","Very Strong Agreement","Strong Agreement"
"145","A2C9Z4YND5DX0E:3WMINLGALC9R9FEL3HQVSDEWZ92CAG","2",10,1,1,"5","<p style=""font-size:100px""><b>d</b></p><p style=""position: absolute; top: 30px; right: 30px; text-align:right; font-size:50px"""">N = 1</p>","d",0,69,760.099999999627,0,"agree",17,17,11,18,16,"67","female","yes instructions clear","Strong Agreement","Strong Agreement","Very Strong Agreement","Moderate Agreement","Very Strong Agreement","Strong Agreement","Moderate Agreement","Very Strong Agreement","Moderate Agreement","Very Strong Agreement","Strong Agreement","Strong Agreement","Very Strong Agreement","Strong Agreement","Slight Agreement","Strong Agreement","Very Strong Agreement","Strong Agreement"
"146","A2C9Z4YND5DX0E:3WMINLGALC9R9FEL3HQVSDEWZ92CAG","2",10,2,1,"5","<p style=""font-size:100px""><b>B</b></p><p style=""position: absolute; top: 30px; right: 30px; text-align:right; font-size:50px"""">N = 1</p>","B",0,73,724.400000000373,1,"agree",17,17,11,18,16,"67","female","yes instructions clear","Strong Agreement","Strong Agreement","Very Strong Agreement","Moderate Agreement","Very Strong Agreement","Strong Agreement","Moderate Agreement","Very Strong Agreement","Moderate Agreement","Very Strong Agreement","Strong Agreement","Strong Agreement","Very Strong Agreement","Strong Agreement","Slight Agreement","Strong Agreement","Very Strong Agreement","Strong Agreement"
"147","A2C9Z4YND5DX0E:3WMINLGALC9R9FEL3HQVSDEWZ92CAG","2",10,3,1,"5","<p style=""font-size:100px""><b>p</b></p><p style=""position: absolute; top: 30px; right: 30px; text-align:right; font-size:50px"""">N = 1</p>","p",0,73,351.400000000373,1,"agree",17,17,11,18,16,"67","female","yes instructions clear","Strong Agreement","Strong Agreement","Very Strong Agreement","Moderate Agreement","Very Strong Agreement","Strong Agreement","Moderate Agreement","Very Strong Agreement","Moderate Agreement","Very Strong Agreement","Strong Agreement","Strong Agreement","Very Strong Agreement","Strong Agreement","Slight Agreement","Strong Agreement","Very Strong Agreement","Strong Agreement"
