"","subject","run","block","trial","N","reward","stimulus","cue","isTarget","key_press","rt","acc","debrief","performance","frustration","demand","temporal","effort","age","gender","comments","nfc1","nfc2","nfc3","nfc4","nfc5","nfc6","nfc7","nfc8","nfc9","nfc10","nfc11","nfc12","nfc13","nfc14","nfc15","nfc16","nfc17","nfc18"
"1","AR1SBXX7MNOT4:3JRJSWSMQIR6MSZEQTHGVT0TEAR3E6","practice",1,1,1,"NA","<p style=""font-size:100px""><b>v</b></p><p style=""position: absolute; top: 30px; right: 30px; text-align:right; font-size:50px"""">N = 1</p>","v",0,73,25136.5,1,"agree",20,20,19,19,20,"50","MALE","GOOD SURVEY","Strong Agreement","Moderate Agreement","Very Strong Agreement","Strong Agreement","Moderate Agreement","Slight Agreement","Strong Agreement","Strong Agreement","Strong Agreement","Very Strong Agreement","Strong Agreement","Strong Agreement","Strong Agreement","Very Strong Agreement","Very Strong Agreement","Strong Agreement","Strong Agreement","Moderate Agreement"
"2","AR1SBXX7MNOT4:3JRJSWSMQIR6MSZEQTHGVT0TEAR3E6","practice",1,2,1,"NA","<p style=""font-size:100px""><b>G</b></p><p style=""position: absolute; top: 30px; right: 30px; text-align:right; font-size:50px"""">N = 1</p>","G",0,73,3190.5,1,"agree",20,20,19,19,20,"50","MALE","GOOD SURVEY","Strong Agreement","Moderate Agreement","Very Strong Agreement","Strong Agreement","Moderate Agreement","Slight Agreement","Strong Agreement","Strong Agreement","Strong Agreement","Very Strong Agreement","Strong Agreement","Strong Agreement","Strong Agreement","Very Strong Agreement","Very Strong Agreement","Strong Agreement","Strong Agreement","Moderate Agreement"
"3","AR1SBXX7MNOT4:3JRJSWSMQIR6MSZEQTHGVT0TEAR3E6","practice",1,3,1,"NA","<p style=""font-size:100px""><b>G</b></p><p style=""position: absolute; top: 30px; right: 30px; text-align:right; font-size:50px"""">N = 1</p>","G",1,73,1690.5,0,"agree",20,20,19,19,20,"50","MALE","GOOD SURVEY","Strong Agreement","Moderate Agreement","Very Strong Agreement","Strong Agreement","Moderate Agreement","Slight Agreement","Strong Agreement","Strong Agreement","Strong Agreement","Very Strong Agreement","Strong Agreement","Strong Agreement","Strong Agreement","Very Strong Agreement","Very Strong Agreement","Strong Agreement","Strong Agreement","Moderate Agreement"
"4","AR1SBXX7MNOT4:3JRJSWSMQIR6MSZEQTHGVT0TEAR3E6","practice",1,4,1,"NA","<p style=""font-size:100px""><b>d</b></p><p style=""position: absolute; top: 30px; right: 30px; text-align:right; font-size:50px"""">N = 1</p>","d",0,73,3011.20000004768,1,"agree",20,20,19,19,20,"50","MALE","GOOD SURVEY","Strong Agreement","Moderate Agreement","Very Strong Agreement","Strong Agreement","Moderate Agreement","Slight Agreement","Strong Agreement","Strong Agreement","Strong Agreement","Very Strong Agreement","Strong Agreement","Strong Agreement","Strong Agreement","Very Strong Agreement","Very Strong Agreement","Strong Agreement","Strong Agreement","Moderate Agreement"
"5","AR1SBXX7MNOT4:3JRJSWSMQIR6MSZEQTHGVT0TEAR3E6","practice",1,5,1,"NA","<p style=""font-size:100px""><b>d</b></p><p style=""position: absolute; top: 30px; right: 30px; text-align:right; font-size:50px"""">N = 1</p>","d",1,73,1244.70000004768,0,"agree",20,20,19,19,20,"50","MALE","GOOD SURVEY","Strong Agreement","Moderate Agreement","Very Strong Agreement","Strong Agreement","Moderate Agreement","Slight Agreement","Strong Agreement","Strong Agreement","Strong Agreement","Very Strong Agreement","Strong Agreement","Strong Agreement","Strong Agreement","Very Strong Agreement","Very Strong Agreement","Strong Agreement","Strong Agreement","Moderate Agreement"
"6","AR1SBXX7MNOT4:3JRJSWSMQIR6MSZEQTHGVT0TEAR3E6","practice",1,6,1,"NA","<p style=""font-size:100px""><b>d</b></p><p style=""position: absolute; top: 30px; right: 30px; text-align:right; font-size:50px"""">N = 1</p>","d",1,73,252.099999904633,0,"agree",20,20,19,19,20,"50","MALE","GOOD SURVEY","Strong Agreement","Moderate Agreement","Very Strong Agreement","Strong Agreement","Moderate Agreement","Slight Agreement","Strong Agreement","Strong Agreement","Strong Agreement","Very Strong Agreement","Strong Agreement","Strong Agreement","Strong Agreement","Very Strong Agreement","Very Strong Agreement","Strong Agreement","Strong Agreement","Moderate Agreement"
"7","AR1SBXX7MNOT4:3JRJSWSMQIR6MSZEQTHGVT0TEAR3E6","practice",1,7,1,"NA","<p style=""font-size:100px""><b>t</b></p><p style=""position: absolute; top: 30px; right: 30px; text-align:right; font-size:50px"""">N = 1</p>","t",0,73,337.5,1,"agree",20,20,19,19,20,"50","MALE","GOOD SURVEY","Strong Agreement","Moderate Agreement","Very Strong Agreement","Strong Agreement","Moderate Agreement","Slight Agreement","Strong Agreement","Strong Agreement","Strong Agreement","Very Strong Agreement","Strong Agreement","Strong Agreement","Strong Agreement","Very Strong Agreement","Very Strong Agreement","Strong Agreement","Strong Agreement","Moderate Agreement"
"8","AR1SBXX7MNOT4:3JRJSWSMQIR6MSZEQTHGVT0TEAR3E6","practice",1,8,1,"NA","<p style=""font-size:100px""><b>D</b></p><p style=""position: absolute; top: 30px; right: 30px; text-align:right; font-size:50px"""">N = 1</p>","D",0,73,1055.79999995232,1,"agree",20,20,19,19,20,"50","MALE","GOOD SURVEY","Strong Agreement","Moderate Agreement","Very Strong Agreement","Strong Agreement","Moderate Agreement","Slight Agreement","Strong Agreement","Strong Agreement","Strong Agreement","Very Strong Agreement","Strong Agreement","Strong Agreement","Strong Agreement","Very Strong Agreement","Very Strong Agreement","Strong Agreement","Strong Agreement","Moderate Agreement"
"9","AR1SBXX7MNOT4:3JRJSWSMQIR6MSZEQTHGVT0TEAR3E6","practice",1,9,1,"NA","<p style=""font-size:100px""><b>t</b></p><p style=""position: absolute; top: 30px; right: 30px; text-align:right; font-size:50px"""">N = 1</p>","t",0,73,718.599999904633,1,"agree",20,20,19,19,20,"50","MALE","GOOD SURVEY","Strong Agreement","Moderate Agreement","Very Strong Agreement","Strong Agreement","Moderate Agreement","Slight Agreement","Strong Agreement","Strong Agreement","Strong Agreement","Very Strong Agreement","Strong Agreement","Strong Agreement","Strong Agreement","Very Strong Agreement","Very Strong Agreement","Strong Agreement","Strong Agreement","Moderate Agreement"
"10","AR1SBXX7MNOT4:3JRJSWSMQIR6MSZEQTHGVT0TEAR3E6","practice",1,10,1,"NA","<p style=""font-size:100px""><b>t</b></p><p style=""position: absolute; top: 30px; right: 30px; text-align:right; font-size:50px"""">N = 1</p>","t",1,73,633.899999856949,0,"agree",20,20,19,19,20,"50","MALE","GOOD SURVEY","Strong Agreement","Moderate Agreement","Very Strong Agreement","Strong Agreement","Moderate Agreement","Slight Agreement","Strong Agreement","Strong Agreement","Strong Agreement","Very Strong Agreement","Strong Agreement","Strong Agreement","Strong Agreement","Very Strong Agreement","Very Strong Agreement","Strong Agreement","Strong Agreement","Moderate Agreement"
"11","AR1SBXX7MNOT4:3JRJSWSMQIR6MSZEQTHGVT0TEAR3E6","practice",1,11,1,"NA","<p style=""font-size:100px""><b>D</b></p><p style=""position: absolute; top: 30px; right: 30px; text-align:right; font-size:50px"""">N = 1</p>","D",0,73,320.799999952316,1,"agree",20,20,19,19,20,"50","MALE","GOOD SURVEY","Strong Agreement","Moderate Agreement","Very Strong Agreement","Strong Agreement","Moderate Agreement","Slight Agreement","Strong Agreement","Strong Agreement","Strong Agreement","Very Strong Agreement","Strong Agreement","Strong Agreement","Strong Agreement","Very Strong Agreement","Very Strong Agreement","Strong Agreement","Strong Agreement","Moderate Agreement"
"12","AR1SBXX7MNOT4:3JRJSWSMQIR6MSZEQTHGVT0TEAR3E6","practice",1,12,1,"NA","<p style=""font-size:100px""><b>b</b></p><p style=""position: absolute; top: 30px; right: 30px; text-align:right; font-size:50px"""">N = 1</p>","b",0,73,356.799999952316,1,"agree",20,20,19,19,20,"50","MALE","GOOD SURVEY","Strong Agreement","Moderate Agreement","Very Strong Agreement","Strong Agreement","Moderate Agreement","Slight Agreement","Strong Agreement","Strong Agreement","Strong Agreement","Very Strong Agreement","Strong Agreement","Strong Agreement","Strong Agreement","Very Strong Agreement","Very Strong Agreement","Strong Agreement","Strong Agreement","Moderate Agreement"
"13","AR1SBXX7MNOT4:3JRJSWSMQIR6MSZEQTHGVT0TEAR3E6","practice",2,1,2,"NA","<p style=""font-size:100px""><b>V</b></p><p style=""position: absolute; top: 30px; right: 30px; text-align:right; font-size:50px"""">N = 2</p>","V",0,73,3980.79999995232,1,"agree",20,20,19,19,20,"50","MALE","GOOD SURVEY","Strong Agreement","Moderate Agreement","Very Strong Agreement","Strong Agreement","Moderate Agreement","Slight Agreement","Strong Agreement","Strong Agreement","Strong Agreement","Very Strong Agreement","Strong Agreement","Strong Agreement","Strong Agreement","Very Strong Agreement","Very Strong Agreement","Strong Agreement","Strong Agreement","Moderate Agreement"
"14","AR1SBXX7MNOT4:3JRJSWSMQIR6MSZEQTHGVT0TEAR3E6","practice",2,2,2,"NA","<p style=""font-size:100px""><b>G</b></p><p style=""position: absolute; top: 30px; right: 30px; text-align:right; font-size:50px"""">N = 2</p>","G",0,73,535.400000095367,1,"agree",20,20,19,19,20,"50","MALE","GOOD SURVEY","Strong Agreement","Moderate Agreement","Very Strong Agreement","Strong Agreement","Moderate Agreement","Slight Agreement","Strong Agreement","Strong Agreement","Strong Agreement","Very Strong Agreement","Strong Agreement","Strong Agreement","Strong Agreement","Very Strong Agreement","Very Strong Agreement","Strong Agreement","Strong Agreement","Moderate Agreement"
"15","AR1SBXX7MNOT4:3JRJSWSMQIR6MSZEQTHGVT0TEAR3E6","practice",2,3,2,"NA","<p style=""font-size:100px""><b>V</b></p><p style=""position: absolute; top: 30px; right: 30px; text-align:right; font-size:50px"""">N = 2</p>","V",1,73,256.199999809265,0,"agree",20,20,19,19,20,"50","MALE","GOOD SURVEY","Strong Agreement","Moderate Agreement","Very Strong Agreement","Strong Agreement","Moderate Agreement","Slight Agreement","Strong Agreement","Strong Agreement","Strong Agreement","Very Strong Agreement","Strong Agreement","Strong Agreement","Strong Agreement","Very Strong Agreement","Very Strong Agreement","Strong Agreement","Strong Agreement","Moderate Agreement"
"16","AR1SBXX7MNOT4:3JRJSWSMQIR6MSZEQTHGVT0TEAR3E6","practice",2,4,2,"NA","<p style=""font-size:100px""><b>b</b></p><p style=""position: absolute; top: 30px; right: 30px; text-align:right; font-size:50px"""">N = 2</p>","b",0,73,206.599999904633,1,"agree",20,20,19,19,20,"50","MALE","GOOD SURVEY","Strong Agreement","Moderate Agreement","Very Strong Agreement","Strong Agreement","Moderate Agreement","Slight Agreement","Strong Agreement","Strong Agreement","Strong Agreement","Very Strong Agreement","Strong Agreement","Strong Agreement","Strong Agreement","Very Strong Agreement","Very Strong Agreement","Strong Agreement","Strong Agreement","Moderate Agreement"
"17","AR1SBXX7MNOT4:3JRJSWSMQIR6MSZEQTHGVT0TEAR3E6","practice",2,5,2,"NA","<p style=""font-size:100px""><b>g</b></p><p style=""position: absolute; top: 30px; right: 30px; text-align:right; font-size:50px"""">N = 2</p>","g",0,73,167.799999952316,1,"agree",20,20,19,19,20,"50","MALE","GOOD SURVEY","Strong Agreement","Moderate Agreement","Very Strong Agreement","Strong Agreement","Moderate Agreement","Slight Agreement","Strong Agreement","Strong Agreement","Strong Agreement","Very Strong Agreement","Strong Agreement","Strong Agreement","Strong Agreement","Very Strong Agreement","Very Strong Agreement","Strong Agreement","Strong Agreement","Moderate Agreement"
"18","AR1SBXX7MNOT4:3JRJSWSMQIR6MSZEQTHGVT0TEAR3E6","practice",2,6,2,"NA","<p style=""font-size:100px""><b>T</b></p><p style=""position: absolute; top: 30px; right: 30px; text-align:right; font-size:50px"""">N = 2</p>","T",0,73,11368.5999999046,1,"agree",20,20,19,19,20,"50","MALE","GOOD SURVEY","Strong Agreement","Moderate Agreement","Very Strong Agreement","Strong Agreement","Moderate Agreement","Slight Agreement","Strong Agreement","Strong Agreement","Strong Agreement","Very Strong Agreement","Strong Agreement","Strong Agreement","Strong Agreement","Very Strong Agreement","Very Strong Agreement","Strong Agreement","Strong Agreement","Moderate Agreement"
"19","AR1SBXX7MNOT4:3JRJSWSMQIR6MSZEQTHGVT0TEAR3E6","practice",2,7,2,"NA","<p style=""font-size:100px""><b>t</b></p><p style=""position: absolute; top: 30px; right: 30px; text-align:right; font-size:50px"""">N = 2</p>","t",0,73,286.799999952316,1,"agree",20,20,19,19,20,"50","MALE","GOOD SURVEY","Strong Agreement","Moderate Agreement","Very Strong Agreement","Strong Agreement","Moderate Agreement","Slight Agreement","Strong Agreement","Strong Agreement","Strong Agreement","Very Strong Agreement","Strong Agreement","Strong Agreement","Strong Agreement","Very Strong Agreement","Very Strong Agreement","Strong Agreement","Strong Agreement","Moderate Agreement"
"20","AR1SBXX7MNOT4:3JRJSWSMQIR6MSZEQTHGVT0TEAR3E6","practice",2,8,2,"NA","<p style=""font-size:100px""><b>T</b></p><p style=""position: absolute; top: 30px; right: 30px; text-align:right; font-size:50px"""">N = 2</p>","T",1,73,220.799999952316,0,"agree",20,20,19,19,20,"50","MALE","GOOD SURVEY","Strong Agreement","Moderate Agreement","Very Strong Agreement","Strong Agreement","Moderate Agreement","Slight Agreement","Strong Agreement","Strong Agreement","Strong Agreement","Very Strong Agreement","Strong Agreement","Strong Agreement","Strong Agreement","Very Strong Agreement","Very Strong Agreement","Strong Agreement","Strong Agreement","Moderate Agreement"
"21","AR1SBXX7MNOT4:3JRJSWSMQIR6MSZEQTHGVT0TEAR3E6","practice",2,9,2,"NA","<p style=""font-size:100px""><b>b</b></p><p style=""position: absolute; top: 30px; right: 30px; text-align:right; font-size:50px"""">N = 2</p>","b",0,73,328.900000095367,1,"agree",20,20,19,19,20,"50","MALE","GOOD SURVEY","Strong Agreement","Moderate Agreement","Very Strong Agreement","Strong Agreement","Moderate Agreement","Slight Agreement","Strong Agreement","Strong Agreement","Strong Agreement","Very Strong Agreement","Strong Agreement","Strong Agreement","Strong Agreement","Very Strong Agreement","Very Strong Agreement","Strong Agreement","Strong Agreement","Moderate Agreement"
"22","AR1SBXX7MNOT4:3JRJSWSMQIR6MSZEQTHGVT0TEAR3E6","practice",2,10,2,"NA","<p style=""font-size:100px""><b>T</b></p><p style=""position: absolute; top: 30px; right: 30px; text-align:right; font-size:50px"""">N = 2</p>","T",1,73,340.5,0,"agree",20,20,19,19,20,"50","MALE","GOOD SURVEY","Strong Agreement","Moderate Agreement","Very Strong Agreement","Strong Agreement","Moderate Agreement","Slight Agreement","Strong Agreement","Strong Agreement","Strong Agreement","Very Strong Agreement","Strong Agreement","Strong Agreement","Strong Agreement","Very Strong Agreement","Very Strong Agreement","Strong Agreement","Strong Agreement","Moderate Agreement"
"23","AR1SBXX7MNOT4:3JRJSWSMQIR6MSZEQTHGVT0TEAR3E6","practice",2,11,2,"NA","<p style=""font-size:100px""><b>b</b></p><p style=""position: absolute; top: 30px; right: 30px; text-align:right; font-size:50px"""">N = 2</p>","b",1,73,50.7999999523163,0,"agree",20,20,19,19,20,"50","MALE","GOOD SURVEY","Strong Agreement","Moderate Agreement","Very Strong Agreement","Strong Agreement","Moderate Agreement","Slight Agreement","Strong Agreement","Strong Agreement","Strong Agreement","Very Strong Agreement","Strong Agreement","Strong Agreement","Strong Agreement","Very Strong Agreement","Very Strong Agreement","Strong Agreement","Strong Agreement","Moderate Agreement"
"24","AR1SBXX7MNOT4:3JRJSWSMQIR6MSZEQTHGVT0TEAR3E6","practice",2,12,2,"NA","<p style=""font-size:100px""><b>d</b></p><p style=""position: absolute; top: 30px; right: 30px; text-align:right; font-size:50px"""">N = 2</p>","d",0,73,30.5999999046326,1,"agree",20,20,19,19,20,"50","MALE","GOOD SURVEY","Strong Agreement","Moderate Agreement","Very Strong Agreement","Strong Agreement","Moderate Agreement","Slight Agreement","Strong Agreement","Strong Agreement","Strong Agreement","Very Strong Agreement","Strong Agreement","Strong Agreement","Strong Agreement","Very Strong Agreement","Very Strong Agreement","Strong Agreement","Strong Agreement","Moderate Agreement"
"25","AR1SBXX7MNOT4:3JRJSWSMQIR6MSZEQTHGVT0TEAR3E6","practice",3,1,3,"NA","<p style=""font-size:100px""><b>b</b></p><p style=""position: absolute; top: 30px; right: 30px; text-align:right; font-size:50px"""">N = 3</p>","b",0,73,1893.59999990463,1,"agree",20,20,19,19,20,"50","MALE","GOOD SURVEY","Strong Agreement","Moderate Agreement","Very Strong Agreement","Strong Agreement","Moderate Agreement","Slight Agreement","Strong Agreement","Strong Agreement","Strong Agreement","Very Strong Agreement","Strong Agreement","Strong Agreement","Strong Agreement","Very Strong Agreement","Very Strong Agreement","Strong Agreement","Strong Agreement","Moderate Agreement"
"26","AR1SBXX7MNOT4:3JRJSWSMQIR6MSZEQTHGVT0TEAR3E6","practice",3,2,3,"NA","<p style=""font-size:100px""><b>v</b></p><p style=""position: absolute; top: 30px; right: 30px; text-align:right; font-size:50px"""">N = 3</p>","v",0,73,277.700000047684,1,"agree",20,20,19,19,20,"50","MALE","GOOD SURVEY","Strong Agreement","Moderate Agreement","Very Strong Agreement","Strong Agreement","Moderate Agreement","Slight Agreement","Strong Agreement","Strong Agreement","Strong Agreement","Very Strong Agreement","Strong Agreement","Strong Agreement","Strong Agreement","Very Strong Agreement","Very Strong Agreement","Strong Agreement","Strong Agreement","Moderate Agreement"
"27","AR1SBXX7MNOT4:3JRJSWSMQIR6MSZEQTHGVT0TEAR3E6","practice",3,3,3,"NA","<p style=""font-size:100px""><b>t</b></p><p style=""position: absolute; top: 30px; right: 30px; text-align:right; font-size:50px"""">N = 3</p>","t",0,73,473,1,"agree",20,20,19,19,20,"50","MALE","GOOD SURVEY","Strong Agreement","Moderate Agreement","Very Strong Agreement","Strong Agreement","Moderate Agreement","Slight Agreement","Strong Agreement","Strong Agreement","Strong Agreement","Very Strong Agreement","Strong Agreement","Strong Agreement","Strong Agreement","Very Strong Agreement","Very Strong Agreement","Strong Agreement","Strong Agreement","Moderate Agreement"
"28","AR1SBXX7MNOT4:3JRJSWSMQIR6MSZEQTHGVT0TEAR3E6","practice",3,4,3,"NA","<p style=""font-size:100px""><b>b</b></p><p style=""position: absolute; top: 30px; right: 30px; text-align:right; font-size:50px"""">N = 3</p>","b",1,73,197.700000047684,0,"agree",20,20,19,19,20,"50","MALE","GOOD SURVEY","Strong Agreement","Moderate Agreement","Very Strong Agreement","Strong Agreement","Moderate Agreement","Slight Agreement","Strong Agreement","Strong Agreement","Strong Agreement","Very Strong Agreement","Strong Agreement","Strong Agreement","Strong Agreement","Very Strong Agreement","Very Strong Agreement","Strong Agreement","Strong Agreement","Moderate Agreement"
"29","AR1SBXX7MNOT4:3JRJSWSMQIR6MSZEQTHGVT0TEAR3E6","practice",3,5,3,"NA","<p style=""font-size:100px""><b>v</b></p><p style=""position: absolute; top: 30px; right: 30px; text-align:right; font-size:50px"""">N = 3</p>","v",1,73,430.799999952316,0,"agree",20,20,19,19,20,"50","MALE","GOOD SURVEY","Strong Agreement","Moderate Agreement","Very Strong Agreement","Strong Agreement","Moderate Agreement","Slight Agreement","Strong Agreement","Strong Agreement","Strong Agreement","Very Strong Agreement","Strong Agreement","Strong Agreement","Strong Agreement","Very Strong Agreement","Very Strong Agreement","Strong Agreement","Strong Agreement","Moderate Agreement"
"30","AR1SBXX7MNOT4:3JRJSWSMQIR6MSZEQTHGVT0TEAR3E6","practice",3,6,3,"NA","<p style=""font-size:100px""><b>p</b></p><p style=""position: absolute; top: 30px; right: 30px; text-align:right; font-size:50px"""">N = 3</p>","p",0,73,1682,1,"agree",20,20,19,19,20,"50","MALE","GOOD SURVEY","Strong Agreement","Moderate Agreement","Very Strong Agreement","Strong Agreement","Moderate Agreement","Slight Agreement","Strong Agreement","Strong Agreement","Strong Agreement","Very Strong Agreement","Strong Agreement","Strong Agreement","Strong Agreement","Very Strong Agreement","Very Strong Agreement","Strong Agreement","Strong Agreement","Moderate Agreement"
"31","AR1SBXX7MNOT4:3JRJSWSMQIR6MSZEQTHGVT0TEAR3E6","practice",3,7,3,"NA","<p style=""font-size:100px""><b>d</b></p><p style=""position: absolute; top: 30px; right: 30px; text-align:right; font-size:50px"""">N = 3</p>","d",0,73,5900.5,1,"agree",20,20,19,19,20,"50","MALE","GOOD SURVEY","Strong Agreement","Moderate Agreement","Very Strong Agreement","Strong Agreement","Moderate Agreement","Slight Agreement","Strong Agreement","Strong Agreement","Strong Agreement","Very Strong Agreement","Strong Agreement","Strong Agreement","Strong Agreement","Very Strong Agreement","Very Strong Agreement","Strong Agreement","Strong Agreement","Moderate Agreement"
"32","AR1SBXX7MNOT4:3JRJSWSMQIR6MSZEQTHGVT0TEAR3E6","practice",3,8,3,"NA","<p style=""font-size:100px""><b>P</b></p><p style=""position: absolute; top: 30px; right: 30px; text-align:right; font-size:50px"""">N = 3</p>","P",0,73,89,1,"agree",20,20,19,19,20,"50","MALE","GOOD SURVEY","Strong Agreement","Moderate Agreement","Very Strong Agreement","Strong Agreement","Moderate Agreement","Slight Agreement","Strong Agreement","Strong Agreement","Strong Agreement","Very Strong Agreement","Strong Agreement","Strong Agreement","Strong Agreement","Very Strong Agreement","Very Strong Agreement","Strong Agreement","Strong Agreement","Moderate Agreement"
"33","AR1SBXX7MNOT4:3JRJSWSMQIR6MSZEQTHGVT0TEAR3E6","practice",3,9,3,"NA","<p style=""font-size:100px""><b>T</b></p><p style=""position: absolute; top: 30px; right: 30px; text-align:right; font-size:50px"""">N = 3</p>","T",0,73,289.899999856949,1,"agree",20,20,19,19,20,"50","MALE","GOOD SURVEY","Strong Agreement","Moderate Agreement","Very Strong Agreement","Strong Agreement","Moderate Agreement","Slight Agreement","Strong Agreement","Strong Agreement","Strong Agreement","Very Strong Agreement","Strong Agreement","Strong Agreement","Strong Agreement","Very Strong Agreement","Very Strong Agreement","Strong Agreement","Strong Agreement","Moderate Agreement"
"34","AR1SBXX7MNOT4:3JRJSWSMQIR6MSZEQTHGVT0TEAR3E6","practice",3,10,3,"NA","<p style=""font-size:100px""><b>d</b></p><p style=""position: absolute; top: 30px; right: 30px; text-align:right; font-size:50px"""">N = 3</p>","d",1,73,82.9000000953674,0,"agree",20,20,19,19,20,"50","MALE","GOOD SURVEY","Strong Agreement","Moderate Agreement","Very Strong Agreement","Strong Agreement","Moderate Agreement","Slight Agreement","Strong Agreement","Strong Agreement","Strong Agreement","Very Strong Agreement","Strong Agreement","Strong Agreement","Strong Agreement","Very Strong Agreement","Very Strong Agreement","Strong Agreement","Strong Agreement","Moderate Agreement"
"35","AR1SBXX7MNOT4:3JRJSWSMQIR6MSZEQTHGVT0TEAR3E6","practice",3,11,3,"NA","<p style=""font-size:100px""><b>t</b></p><p style=""position: absolute; top: 30px; right: 30px; text-align:right; font-size:50px"""">N = 3</p>","t",0,73,216.600000143051,1,"agree",20,20,19,19,20,"50","MALE","GOOD SURVEY","Strong Agreement","Moderate Agreement","Very Strong Agreement","Strong Agreement","Moderate Agreement","Slight Agreement","Strong Agreement","Strong Agreement","Strong Agreement","Very Strong Agreement","Strong Agreement","Strong Agreement","Strong Agreement","Very Strong Agreement","Very Strong Agreement","Strong Agreement","Strong Agreement","Moderate Agreement"
"36","AR1SBXX7MNOT4:3JRJSWSMQIR6MSZEQTHGVT0TEAR3E6","practice",3,12,3,"NA","<p style=""font-size:100px""><b>T</b></p><p style=""position: absolute; top: 30px; right: 30px; text-align:right; font-size:50px"""">N = 3</p>","T",1,73,63.5,0,"agree",20,20,19,19,20,"50","MALE","GOOD SURVEY","Strong Agreement","Moderate Agreement","Very Strong Agreement","Strong Agreement","Moderate Agreement","Slight Agreement","Strong Agreement","Strong Agreement","Strong Agreement","Very Strong Agreement","Strong Agreement","Strong Agreement","Strong Agreement","Very Strong Agreement","Very Strong Agreement","Strong Agreement","Strong Agreement","Moderate Agreement"
"37","AR1SBXX7MNOT4:3JRJSWSMQIR6MSZEQTHGVT0TEAR3E6","1",1,1,1,"50","<p style=""font-size:100px""><b>T</b></p><p style=""position: absolute; top: 30px; right: 30px; text-align:right; font-size:50px"""">N = 1</p>","T",0,NA,NA,0,"agree",20,20,19,19,20,"50","MALE","GOOD SURVEY","Strong Agreement","Moderate Agreement","Very Strong Agreement","Strong Agreement","Moderate Agreement","Slight Agreement","Strong Agreement","Strong Agreement","Strong Agreement","Very Strong Agreement","Strong Agreement","Strong Agreement","Strong Agreement","Very Strong Agreement","Very Strong Agreement","Strong Agreement","Strong Agreement","Moderate Agreement"
"38","AR1SBXX7MNOT4:3JRJSWSMQIR6MSZEQTHGVT0TEAR3E6","1",1,2,1,"50","<p style=""font-size:100px""><b>T</b></p><p style=""position: absolute; top: 30px; right: 30px; text-align:right; font-size:50px"""">N = 1</p>","T",0,NA,NA,0,"agree",20,20,19,19,20,"50","MALE","GOOD SURVEY","Strong Agreement","Moderate Agreement","Very Strong Agreement","Strong Agreement","Moderate Agreement","Slight Agreement","Strong Agreement","Strong Agreement","Strong Agreement","Very Strong Agreement","Strong Agreement","Strong Agreement","Strong Agreement","Very Strong Agreement","Very Strong Agreement","Strong Agreement","Strong Agreement","Moderate Agreement"
"39","AR1SBXX7MNOT4:3JRJSWSMQIR6MSZEQTHGVT0TEAR3E6","1",1,3,1,"50","<p style=""font-size:100px""><b>v</b></p><p style=""position: absolute; top: 30px; right: 30px; text-align:right; font-size:50px"""">N = 1</p>","v",0,73,239.799999952316,1,"agree",20,20,19,19,20,"50","MALE","GOOD SURVEY","Strong Agreement","Moderate Agreement","Very Strong Agreement","Strong Agreement","Moderate Agreement","Slight Agreement","Strong Agreement","Strong Agreement","Strong Agreement","Very Strong Agreement","Strong Agreement","Strong Agreement","Strong Agreement","Very Strong Agreement","Very Strong Agreement","Strong Agreement","Strong Agreement","Moderate Agreement"
"40","AR1SBXX7MNOT4:3JRJSWSMQIR6MSZEQTHGVT0TEAR3E6","1",1,4,1,"50","<p style=""font-size:100px""><b>B</b></p><p style=""position: absolute; top: 30px; right: 30px; text-align:right; font-size:50px"""">N = 1</p>","B",0,73,378.599999904633,1,"agree",20,20,19,19,20,"50","MALE","GOOD SURVEY","Strong Agreement","Moderate Agreement","Very Strong Agreement","Strong Agreement","Moderate Agreement","Slight Agreement","Strong Agreement","Strong Agreement","Strong Agreement","Very Strong Agreement","Strong Agreement","Strong Agreement","Strong Agreement","Very Strong Agreement","Very Strong Agreement","Strong Agreement","Strong Agreement","Moderate Agreement"
"41","AR1SBXX7MNOT4:3JRJSWSMQIR6MSZEQTHGVT0TEAR3E6","1",1,5,1,"50","<p style=""font-size:100px""><b>t</b></p><p style=""position: absolute; top: 30px; right: 30px; text-align:right; font-size:50px"""">N = 1</p>","t",0,NA,NA,0,"agree",20,20,19,19,20,"50","MALE","GOOD SURVEY","Strong Agreement","Moderate Agreement","Very Strong Agreement","Strong Agreement","Moderate Agreement","Slight Agreement","Strong Agreement","Strong Agreement","Strong Agreement","Very Strong Agreement","Strong Agreement","Strong Agreement","Strong Agreement","Very Strong Agreement","Very Strong Agreement","Strong Agreement","Strong Agreement","Moderate Agreement"
"42","AR1SBXX7MNOT4:3JRJSWSMQIR6MSZEQTHGVT0TEAR3E6","1",1,6,1,"50","<p style=""font-size:100px""><b>g</b></p><p style=""position: absolute; top: 30px; right: 30px; text-align:right; font-size:50px"""">N = 1</p>","g",0,NA,NA,0,"agree",20,20,19,19,20,"50","MALE","GOOD SURVEY","Strong Agreement","Moderate Agreement","Very Strong Agreement","Strong Agreement","Moderate Agreement","Slight Agreement","Strong Agreement","Strong Agreement","Strong Agreement","Very Strong Agreement","Strong Agreement","Strong Agreement","Strong Agreement","Very Strong Agreement","Very Strong Agreement","Strong Agreement","Strong Agreement","Moderate Agreement"
"43","AR1SBXX7MNOT4:3JRJSWSMQIR6MSZEQTHGVT0TEAR3E6","1",1,7,1,"50","<p style=""font-size:100px""><b>B</b></p><p style=""position: absolute; top: 30px; right: 30px; text-align:right; font-size:50px"""">N = 1</p>","B",0,NA,NA,0,"agree",20,20,19,19,20,"50","MALE","GOOD SURVEY","Strong Agreement","Moderate Agreement","Very Strong Agreement","Strong Agreement","Moderate Agreement","Slight Agreement","Strong Agreement","Strong Agreement","Strong Agreement","Very Strong Agreement","Strong Agreement","Strong Agreement","Strong Agreement","Very Strong Agreement","Very Strong Agreement","Strong Agreement","Strong Agreement","Moderate Agreement"
"44","AR1SBXX7MNOT4:3JRJSWSMQIR6MSZEQTHGVT0TEAR3E6","1",1,8,1,"50","<p style=""font-size:100px""><b>B</b></p><p style=""position: absolute; top: 30px; right: 30px; text-align:right; font-size:50px"""">N = 1</p>","B",0,NA,NA,0,"agree",20,20,19,19,20,"50","MALE","GOOD SURVEY","Strong Agreement","Moderate Agreement","Very Strong Agreement","Strong Agreement","Moderate Agreement","Slight Agreement","Strong Agreement","Strong Agreement","Strong Agreement","Very Strong Agreement","Strong Agreement","Strong Agreement","Strong Agreement","Very Strong Agreement","Very Strong Agreement","Strong Agreement","Strong Agreement","Moderate Agreement"
"45","AR1SBXX7MNOT4:3JRJSWSMQIR6MSZEQTHGVT0TEAR3E6","1",1,9,1,"50","<p style=""font-size:100px""><b>B</b></p><p style=""position: absolute; top: 30px; right: 30px; text-align:right; font-size:50px"""">N = 1</p>","B",0,NA,NA,0,"agree",20,20,19,19,20,"50","MALE","GOOD SURVEY","Strong Agreement","Moderate Agreement","Very Strong Agreement","Strong Agreement","Moderate Agreement","Slight Agreement","Strong Agreement","Strong Agreement","Strong Agreement","Very Strong Agreement","Strong Agreement","Strong Agreement","Strong Agreement","Very Strong Agreement","Very Strong Agreement","Strong Agreement","Strong Agreement","Moderate Agreement"
"46","AR1SBXX7MNOT4:3JRJSWSMQIR6MSZEQTHGVT0TEAR3E6","1",1,10,1,"50","<p style=""font-size:100px""><b>B</b></p><p style=""position: absolute; top: 30px; right: 30px; text-align:right; font-size:50px"""">N = 1</p>","B",0,73,434.700000047684,1,"agree",20,20,19,19,20,"50","MALE","GOOD SURVEY","Strong Agreement","Moderate Agreement","Very Strong Agreement","Strong Agreement","Moderate Agreement","Slight Agreement","Strong Agreement","Strong Agreement","Strong Agreement","Very Strong Agreement","Strong Agreement","Strong Agreement","Strong Agreement","Very Strong Agreement","Very Strong Agreement","Strong Agreement","Strong Agreement","Moderate Agreement"
"47","AR1SBXX7MNOT4:3JRJSWSMQIR6MSZEQTHGVT0TEAR3E6","1",1,11,1,"50","<p style=""font-size:100px""><b>t</b></p><p style=""position: absolute; top: 30px; right: 30px; text-align:right; font-size:50px"""">N = 1</p>","t",0,73,756.099999904633,1,"agree",20,20,19,19,20,"50","MALE","GOOD SURVEY","Strong Agreement","Moderate Agreement","Very Strong Agreement","Strong Agreement","Moderate Agreement","Slight Agreement","Strong Agreement","Strong Agreement","Strong Agreement","Very Strong Agreement","Strong Agreement","Strong Agreement","Strong Agreement","Very Strong Agreement","Very Strong Agreement","Strong Agreement","Strong Agreement","Moderate Agreement"
"48","AR1SBXX7MNOT4:3JRJSWSMQIR6MSZEQTHGVT0TEAR3E6","1",1,12,1,"50","<p style=""font-size:100px""><b>V</b></p><p style=""position: absolute; top: 30px; right: 30px; text-align:right; font-size:50px"""">N = 1</p>","V",0,NA,NA,0,"agree",20,20,19,19,20,"50","MALE","GOOD SURVEY","Strong Agreement","Moderate Agreement","Very Strong Agreement","Strong Agreement","Moderate Agreement","Slight Agreement","Strong Agreement","Strong Agreement","Strong Agreement","Very Strong Agreement","Strong Agreement","Strong Agreement","Strong Agreement","Very Strong Agreement","Very Strong Agreement","Strong Agreement","Strong Agreement","Moderate Agreement"
"49","AR1SBXX7MNOT4:3JRJSWSMQIR6MSZEQTHGVT0TEAR3E6","1",2,1,3,"5","<p style=""font-size:100px""><b>P</b></p><p style=""position: absolute; top: 30px; right: 30px; text-align:right; font-size:50px"""">N = 3</p>","P",0,NA,NA,0,"agree",20,20,20,21,21,"50","MALE","GOOD SURVEY","Strong Agreement","Moderate Agreement","Very Strong Agreement","Strong Agreement","Moderate Agreement","Slight Agreement","Strong Agreement","Strong Agreement","Strong Agreement","Very Strong Agreement","Strong Agreement","Strong Agreement","Strong Agreement","Very Strong Agreement","Very Strong Agreement","Strong Agreement","Strong Agreement","Moderate Agreement"
"50","AR1SBXX7MNOT4:3JRJSWSMQIR6MSZEQTHGVT0TEAR3E6","1",2,2,3,"5","<p style=""font-size:100px""><b>V</b></p><p style=""position: absolute; top: 30px; right: 30px; text-align:right; font-size:50px"""">N = 3</p>","V",0,NA,NA,0,"agree",20,20,20,21,21,"50","MALE","GOOD SURVEY","Strong Agreement","Moderate Agreement","Very Strong Agreement","Strong Agreement","Moderate Agreement","Slight Agreement","Strong Agreement","Strong Agreement","Strong Agreement","Very Strong Agreement","Strong Agreement","Strong Agreement","Strong Agreement","Very Strong Agreement","Very Strong Agreement","Strong Agreement","Strong Agreement","Moderate Agreement"
"51","AR1SBXX7MNOT4:3JRJSWSMQIR6MSZEQTHGVT0TEAR3E6","1",2,3,3,"5","<p style=""font-size:100px""><b>D</b></p><p style=""position: absolute; top: 30px; right: 30px; text-align:right; font-size:50px"""">N = 3</p>","D",0,73,518.400000095367,1,"agree",20,20,20,21,21,"50","MALE","GOOD SURVEY","Strong Agreement","Moderate Agreement","Very Strong Agreement","Strong Agreement","Moderate Agreement","Slight Agreement","Strong Agreement","Strong Agreement","Strong Agreement","Very Strong Agreement","Strong Agreement","Strong Agreement","Strong Agreement","Very Strong Agreement","Very Strong Agreement","Strong Agreement","Strong Agreement","Moderate Agreement"
"52","AR1SBXX7MNOT4:3JRJSWSMQIR6MSZEQTHGVT0TEAR3E6","1",2,4,3,"5","<p style=""font-size:100px""><b>P</b></p><p style=""position: absolute; top: 30px; right: 30px; text-align:right; font-size:50px"""">N = 3</p>","P",0,73,203,1,"agree",20,20,20,21,21,"50","MALE","GOOD SURVEY","Strong Agreement","Moderate Agreement","Very Strong Agreement","Strong Agreement","Moderate Agreement","Slight Agreement","Strong Agreement","Strong Agreement","Strong Agreement","Very Strong Agreement","Strong Agreement","Strong Agreement","Strong Agreement","Very Strong Agreement","Very Strong Agreement","Strong Agreement","Strong Agreement","Moderate Agreement"
"53","AR1SBXX7MNOT4:3JRJSWSMQIR6MSZEQTHGVT0TEAR3E6","1",2,5,3,"5","<p style=""font-size:100px""><b>t</b></p><p style=""position: absolute; top: 30px; right: 30px; text-align:right; font-size:50px"""">N = 3</p>","t",0,73,463.400000095367,1,"agree",20,20,20,21,21,"50","MALE","GOOD SURVEY","Strong Agreement","Moderate Agreement","Very Strong Agreement","Strong Agreement","Moderate Agreement","Slight Agreement","Strong Agreement","Strong Agreement","Strong Agreement","Very Strong Agreement","Strong Agreement","Strong Agreement","Strong Agreement","Very Strong Agreement","Very Strong Agreement","Strong Agreement","Strong Agreement","Moderate Agreement"
"54","AR1SBXX7MNOT4:3JRJSWSMQIR6MSZEQTHGVT0TEAR3E6","1",2,6,3,"5","<p style=""font-size:100px""><b>t</b></p><p style=""position: absolute; top: 30px; right: 30px; text-align:right; font-size:50px"""">N = 3</p>","t",0,73,224.5,1,"agree",20,20,20,21,21,"50","MALE","GOOD SURVEY","Strong Agreement","Moderate Agreement","Very Strong Agreement","Strong Agreement","Moderate Agreement","Slight Agreement","Strong Agreement","Strong Agreement","Strong Agreement","Very Strong Agreement","Strong Agreement","Strong Agreement","Strong Agreement","Very Strong Agreement","Very Strong Agreement","Strong Agreement","Strong Agreement","Moderate Agreement"
"55","AR1SBXX7MNOT4:3JRJSWSMQIR6MSZEQTHGVT0TEAR3E6","1",2,7,3,"5","<p style=""font-size:100px""><b>B</b></p><p style=""position: absolute; top: 30px; right: 30px; text-align:right; font-size:50px"""">N = 3</p>","B",0,73,655.799999952316,1,"agree",20,20,20,21,21,"50","MALE","GOOD SURVEY","Strong Agreement","Moderate Agreement","Very Strong Agreement","Strong Agreement","Moderate Agreement","Slight Agreement","Strong Agreement","Strong Agreement","Strong Agreement","Very Strong Agreement","Strong Agreement","Strong Agreement","Strong Agreement","Very Strong Agreement","Very Strong Agreement","Strong Agreement","Strong Agreement","Moderate Agreement"
"56","AR1SBXX7MNOT4:3JRJSWSMQIR6MSZEQTHGVT0TEAR3E6","1",2,8,3,"5","<p style=""font-size:100px""><b>t</b></p><p style=""position: absolute; top: 30px; right: 30px; text-align:right; font-size:50px"""">N = 3</p>","t",0,73,550.900000095367,1,"agree",20,20,20,21,21,"50","MALE","GOOD SURVEY","Strong Agreement","Moderate Agreement","Very Strong Agreement","Strong Agreement","Moderate Agreement","Slight Agreement","Strong Agreement","Strong Agreement","Strong Agreement","Very Strong Agreement","Strong Agreement","Strong Agreement","Strong Agreement","Very Strong Agreement","Very Strong Agreement","Strong Agreement","Strong Agreement","Moderate Agreement"
"57","AR1SBXX7MNOT4:3JRJSWSMQIR6MSZEQTHGVT0TEAR3E6","1",2,9,3,"5","<p style=""font-size:100px""><b>t</b></p><p style=""position: absolute; top: 30px; right: 30px; text-align:right; font-size:50px"""">N = 3</p>","t",0,73,240.399999856949,1,"agree",20,20,20,21,21,"50","MALE","GOOD SURVEY","Strong Agreement","Moderate Agreement","Very Strong Agreement","Strong Agreement","Moderate Agreement","Slight Agreement","Strong Agreement","Strong Agreement","Strong Agreement","Very Strong Agreement","Strong Agreement","Strong Agreement","Strong Agreement","Very Strong Agreement","Very Strong Agreement","Strong Agreement","Strong Agreement","Moderate Agreement"
"58","AR1SBXX7MNOT4:3JRJSWSMQIR6MSZEQTHGVT0TEAR3E6","1",2,10,3,"5","<p style=""font-size:100px""><b>t</b></p><p style=""position: absolute; top: 30px; right: 30px; text-align:right; font-size:50px"""">N = 3</p>","t",0,NA,NA,0,"agree",20,20,20,21,21,"50","MALE","GOOD SURVEY","Strong Agreement","Moderate Agreement","Very Strong Agreement","Strong Agreement","Moderate Agreement","Slight Agreement","Strong Agreement","Strong Agreement","Strong Agreement","Very Strong Agreement","Strong Agreement","Strong Agreement","Strong Agreement","Very Strong Agreement","Very Strong Agreement","Strong Agreement","Strong Agreement","Moderate Agreement"
"59","AR1SBXX7MNOT4:3JRJSWSMQIR6MSZEQTHGVT0TEAR3E6","1",2,11,3,"5","<p style=""font-size:100px""><b>G</b></p><p style=""position: absolute; top: 30px; right: 30px; text-align:right; font-size:50px"""">N = 3</p>","G",0,NA,NA,0,"agree",20,20,20,21,21,"50","MALE","GOOD SURVEY","Strong Agreement","Moderate Agreement","Very Strong Agreement","Strong Agreement","Moderate Agreement","Slight Agreement","Strong Agreement","Strong Agreement","Strong Agreement","Very Strong Agreement","Strong Agreement","Strong Agreement","Strong Agreement","Very Strong Agreement","Very Strong Agreement","Strong Agreement","Strong Agreement","Moderate Agreement"
"60","AR1SBXX7MNOT4:3JRJSWSMQIR6MSZEQTHGVT0TEAR3E6","1",2,12,3,"5","<p style=""font-size:100px""><b>t</b></p><p style=""position: absolute; top: 30px; right: 30px; text-align:right; font-size:50px"""">N = 3</p>","t",0,NA,NA,0,"agree",20,20,20,21,21,"50","MALE","GOOD SURVEY","Strong Agreement","Moderate Agreement","Very Strong Agreement","Strong Agreement","Moderate Agreement","Slight Agreement","Strong Agreement","Strong Agreement","Strong Agreement","Very Strong Agreement","Strong Agreement","Strong Agreement","Strong Agreement","Very Strong Agreement","Very Strong Agreement","Strong Agreement","Strong Agreement","Moderate Agreement"
"61","AR1SBXX7MNOT4:3JRJSWSMQIR6MSZEQTHGVT0TEAR3E6","1",3,1,1,"5","<p style=""font-size:100px""><b>P</b></p><p style=""position: absolute; top: 30px; right: 30px; text-align:right; font-size:50px"""">N = 1</p>","P",0,NA,NA,0,"agree",20,20,19,19,20,"50","MALE","GOOD SURVEY","Strong Agreement","Moderate Agreement","Very Strong Agreement","Strong Agreement","Moderate Agreement","Slight Agreement","Strong Agreement","Strong Agreement","Strong Agreement","Very Strong Agreement","Strong Agreement","Strong Agreement","Strong Agreement","Very Strong Agreement","Very Strong Agreement","Strong Agreement","Strong Agreement","Moderate Agreement"
"62","AR1SBXX7MNOT4:3JRJSWSMQIR6MSZEQTHGVT0TEAR3E6","1",3,2,1,"5","<p style=""font-size:100px""><b>g</b></p><p style=""position: absolute; top: 30px; right: 30px; text-align:right; font-size:50px"""">N = 1</p>","g",0,NA,NA,0,"agree",20,20,19,19,20,"50","MALE","GOOD SURVEY","Strong Agreement","Moderate Agreement","Very Strong Agreement","Strong Agreement","Moderate Agreement","Slight Agreement","Strong Agreement","Strong Agreement","Strong Agreement","Very Strong Agreement","Strong Agreement","Strong Agreement","Strong Agreement","Very Strong Agreement","Very Strong Agreement","Strong Agreement","Strong Agreement","Moderate Agreement"
"63","AR1SBXX7MNOT4:3JRJSWSMQIR6MSZEQTHGVT0TEAR3E6","1",3,3,1,"5","<p style=""font-size:100px""><b>B</b></p><p style=""position: absolute; top: 30px; right: 30px; text-align:right; font-size:50px"""">N = 1</p>","B",0,NA,NA,0,"agree",20,20,19,19,20,"50","MALE","GOOD SURVEY","Strong Agreement","Moderate Agreement","Very Strong Agreement","Strong Agreement","Moderate Agreement","Slight Agreement","Strong Agreement","Strong Agreement","Strong Agreement","Very Strong Agreement","Strong Agreement","Strong Agreement","Strong Agreement","Very Strong Agreement","Very Strong Agreement","Strong Agreement","Strong Agreement","Moderate Agreement"
"64","AR1SBXX7MNOT4:3JRJSWSMQIR6MSZEQTHGVT0TEAR3E6","1",3,4,1,"5","<p style=""font-size:100px""><b>P</b></p><p style=""position: absolute; top: 30px; right: 30px; text-align:right; font-size:50px"""">N = 1</p>","P",0,NA,NA,0,"agree",20,20,19,19,20,"50","MALE","GOOD SURVEY","Strong Agreement","Moderate Agreement","Very Strong Agreement","Strong Agreement","Moderate Agreement","Slight Agreement","Strong Agreement","Strong Agreement","Strong Agreement","Very Strong Agreement","Strong Agreement","Strong Agreement","Strong Agreement","Very Strong Agreement","Very Strong Agreement","Strong Agreement","Strong Agreement","Moderate Agreement"
"65","AR1SBXX7MNOT4:3JRJSWSMQIR6MSZEQTHGVT0TEAR3E6","1",3,5,1,"5","<p style=""font-size:100px""><b>P</b></p><p style=""position: absolute; top: 30px; right: 30px; text-align:right; font-size:50px"""">N = 1</p>","P",0,NA,NA,0,"agree",20,20,19,19,20,"50","MALE","GOOD SURVEY","Strong Agreement","Moderate Agreement","Very Strong Agreement","Strong Agreement","Moderate Agreement","Slight Agreement","Strong Agreement","Strong Agreement","Strong Agreement","Very Strong Agreement","Strong Agreement","Strong Agreement","Strong Agreement","Very Strong Agreement","Very Strong Agreement","Strong Agreement","Strong Agreement","Moderate Agreement"
"66","AR1SBXX7MNOT4:3JRJSWSMQIR6MSZEQTHGVT0TEAR3E6","1",3,6,1,"5","<p style=""font-size:100px""><b>P</b></p><p style=""position: absolute; top: 30px; right: 30px; text-align:right; font-size:50px"""">N = 1</p>","P",0,NA,NA,0,"agree",20,20,19,19,20,"50","MALE","GOOD SURVEY","Strong Agreement","Moderate Agreement","Very Strong Agreement","Strong Agreement","Moderate Agreement","Slight Agreement","Strong Agreement","Strong Agreement","Strong Agreement","Very Strong Agreement","Strong Agreement","Strong Agreement","Strong Agreement","Very Strong Agreement","Very Strong Agreement","Strong Agreement","Strong Agreement","Moderate Agreement"
"67","AR1SBXX7MNOT4:3JRJSWSMQIR6MSZEQTHGVT0TEAR3E6","1",3,7,1,"5","<p style=""font-size:100px""><b>G</b></p><p style=""position: absolute; top: 30px; right: 30px; text-align:right; font-size:50px"""">N = 1</p>","G",0,NA,NA,0,"agree",20,20,19,19,20,"50","MALE","GOOD SURVEY","Strong Agreement","Moderate Agreement","Very Strong Agreement","Strong Agreement","Moderate Agreement","Slight Agreement","Strong Agreement","Strong Agreement","Strong Agreement","Very Strong Agreement","Strong Agreement","Strong Agreement","Strong Agreement","Very Strong Agreement","Very Strong Agreement","Strong Agreement","Strong Agreement","Moderate Agreement"
"68","AR1SBXX7MNOT4:3JRJSWSMQIR6MSZEQTHGVT0TEAR3E6","1",3,8,1,"5","<p style=""font-size:100px""><b>V</b></p><p style=""position: absolute; top: 30px; right: 30px; text-align:right; font-size:50px"""">N = 1</p>","V",0,NA,NA,0,"agree",20,20,19,19,20,"50","MALE","GOOD SURVEY","Strong Agreement","Moderate Agreement","Very Strong Agreement","Strong Agreement","Moderate Agreement","Slight Agreement","Strong Agreement","Strong Agreement","Strong Agreement","Very Strong Agreement","Strong Agreement","Strong Agreement","Strong Agreement","Very Strong Agreement","Very Strong Agreement","Strong Agreement","Strong Agreement","Moderate Agreement"
"69","AR1SBXX7MNOT4:3JRJSWSMQIR6MSZEQTHGVT0TEAR3E6","1",3,9,1,"5","<p style=""font-size:100px""><b>V</b></p><p style=""position: absolute; top: 30px; right: 30px; text-align:right; font-size:50px"""">N = 1</p>","V",0,NA,NA,0,"agree",20,20,19,19,20,"50","MALE","GOOD SURVEY","Strong Agreement","Moderate Agreement","Very Strong Agreement","Strong Agreement","Moderate Agreement","Slight Agreement","Strong Agreement","Strong Agreement","Strong Agreement","Very Strong Agreement","Strong Agreement","Strong Agreement","Strong Agreement","Very Strong Agreement","Very Strong Agreement","Strong Agreement","Strong Agreement","Moderate Agreement"
"70","AR1SBXX7MNOT4:3JRJSWSMQIR6MSZEQTHGVT0TEAR3E6","1",3,10,1,"5","<p style=""font-size:100px""><b>t</b></p><p style=""position: absolute; top: 30px; right: 30px; text-align:right; font-size:50px"""">N = 1</p>","t",0,NA,NA,0,"agree",20,20,19,19,20,"50","MALE","GOOD SURVEY","Strong Agreement","Moderate Agreement","Very Strong Agreement","Strong Agreement","Moderate Agreement","Slight Agreement","Strong Agreement","Strong Agreement","Strong Agreement","Very Strong Agreement","Strong Agreement","Strong Agreement","Strong Agreement","Very Strong Agreement","Very Strong Agreement","Strong Agreement","Strong Agreement","Moderate Agreement"
"71","AR1SBXX7MNOT4:3JRJSWSMQIR6MSZEQTHGVT0TEAR3E6","1",3,11,1,"5","<p style=""font-size:100px""><b>t</b></p><p style=""position: absolute; top: 30px; right: 30px; text-align:right; font-size:50px"""">N = 1</p>","t",0,NA,NA,0,"agree",20,20,19,19,20,"50","MALE","GOOD SURVEY","Strong Agreement","Moderate Agreement","Very Strong Agreement","Strong Agreement","Moderate Agreement","Slight Agreement","Strong Agreement","Strong Agreement","Strong Agreement","Very Strong Agreement","Strong Agreement","Strong Agreement","Strong Agreement","Very Strong Agreement","Very Strong Agreement","Strong Agreement","Strong Agreement","Moderate Agreement"
"72","AR1SBXX7MNOT4:3JRJSWSMQIR6MSZEQTHGVT0TEAR3E6","1",3,12,1,"5","<p style=""font-size:100px""><b>g</b></p><p style=""position: absolute; top: 30px; right: 30px; text-align:right; font-size:50px"""">N = 1</p>","g",0,NA,NA,0,"agree",20,20,19,19,20,"50","MALE","GOOD SURVEY","Strong Agreement","Moderate Agreement","Very Strong Agreement","Strong Agreement","Moderate Agreement","Slight Agreement","Strong Agreement","Strong Agreement","Strong Agreement","Very Strong Agreement","Strong Agreement","Strong Agreement","Strong Agreement","Very Strong Agreement","Very Strong Agreement","Strong Agreement","Strong Agreement","Moderate Agreement"
"73","AR1SBXX7MNOT4:3JRJSWSMQIR6MSZEQTHGVT0TEAR3E6","1",4,1,3,"50","<p style=""font-size:100px""><b>v</b></p><p style=""position: absolute; top: 30px; right: 30px; text-align:right; font-size:50px"""">N = 3</p>","v",0,NA,NA,0,"agree",20,19,19,18,19,"50","MALE","GOOD SURVEY","Strong Agreement","Moderate Agreement","Very Strong Agreement","Strong Agreement","Moderate Agreement","Slight Agreement","Strong Agreement","Strong Agreement","Strong Agreement","Very Strong Agreement","Strong Agreement","Strong Agreement","Strong Agreement","Very Strong Agreement","Very Strong Agreement","Strong Agreement","Strong Agreement","Moderate Agreement"
"74","AR1SBXX7MNOT4:3JRJSWSMQIR6MSZEQTHGVT0TEAR3E6","1",4,2,3,"50","<p style=""font-size:100px""><b>t</b></p><p style=""position: absolute; top: 30px; right: 30px; text-align:right; font-size:50px"""">N = 3</p>","t",0,73,948,1,"agree",20,19,19,18,19,"50","MALE","GOOD SURVEY","Strong Agreement","Moderate Agreement","Very Strong Agreement","Strong Agreement","Moderate Agreement","Slight Agreement","Strong Agreement","Strong Agreement","Strong Agreement","Very Strong Agreement","Strong Agreement","Strong Agreement","Strong Agreement","Very Strong Agreement","Very Strong Agreement","Strong Agreement","Strong Agreement","Moderate Agreement"
"75","AR1SBXX7MNOT4:3JRJSWSMQIR6MSZEQTHGVT0TEAR3E6","1",4,3,3,"50","<p style=""font-size:100px""><b>p</b></p><p style=""position: absolute; top: 30px; right: 30px; text-align:right; font-size:50px"""">N = 3</p>","p",0,73,260.799999952316,1,"agree",20,19,19,18,19,"50","MALE","GOOD SURVEY","Strong Agreement","Moderate Agreement","Very Strong Agreement","Strong Agreement","Moderate Agreement","Slight Agreement","Strong Agreement","Strong Agreement","Strong Agreement","Very Strong Agreement","Strong Agreement","Strong Agreement","Strong Agreement","Very Strong Agreement","Very Strong Agreement","Strong Agreement","Strong Agreement","Moderate Agreement"
"76","AR1SBXX7MNOT4:3JRJSWSMQIR6MSZEQTHGVT0TEAR3E6","1",4,4,3,"50","<p style=""font-size:100px""><b>P</b></p><p style=""position: absolute; top: 30px; right: 30px; text-align:right; font-size:50px"""">N = 3</p>","P",0,NA,NA,0,"agree",20,19,19,18,19,"50","MALE","GOOD SURVEY","Strong Agreement","Moderate Agreement","Very Strong Agreement","Strong Agreement","Moderate Agreement","Slight Agreement","Strong Agreement","Strong Agreement","Strong Agreement","Very Strong Agreement","Strong Agreement","Strong Agreement","Strong Agreement","Very Strong Agreement","Very Strong Agreement","Strong Agreement","Strong Agreement","Moderate Agreement"
"77","AR1SBXX7MNOT4:3JRJSWSMQIR6MSZEQTHGVT0TEAR3E6","1",4,5,3,"50","<p style=""font-size:100px""><b>g</b></p><p style=""position: absolute; top: 30px; right: 30px; text-align:right; font-size:50px"""">N = 3</p>","g",0,NA,NA,0,"agree",20,19,19,18,19,"50","MALE","GOOD SURVEY","Strong Agreement","Moderate Agreement","Very Strong Agreement","Strong Agreement","Moderate Agreement","Slight Agreement","Strong Agreement","Strong Agreement","Strong Agreement","Very Strong Agreement","Strong Agreement","Strong Agreement","Strong Agreement","Very Strong Agreement","Very Strong Agreement","Strong Agreement","Strong Agreement","Moderate Agreement"
"78","AR1SBXX7MNOT4:3JRJSWSMQIR6MSZEQTHGVT0TEAR3E6","1",4,6,3,"50","<p style=""font-size:100px""><b>v</b></p><p style=""position: absolute; top: 30px; right: 30px; text-align:right; font-size:50px"""">N = 3</p>","v",0,NA,NA,0,"agree",20,19,19,18,19,"50","MALE","GOOD SURVEY","Strong Agreement","Moderate Agreement","Very Strong Agreement","Strong Agreement","Moderate Agreement","Slight Agreement","Strong Agreement","Strong Agreement","Strong Agreement","Very Strong Agreement","Strong Agreement","Strong Agreement","Strong Agreement","Very Strong Agreement","Very Strong Agreement","Strong Agreement","Strong Agreement","Moderate Agreement"
"79","AR1SBXX7MNOT4:3JRJSWSMQIR6MSZEQTHGVT0TEAR3E6","1",4,7,3,"50","<p style=""font-size:100px""><b>v</b></p><p style=""position: absolute; top: 30px; right: 30px; text-align:right; font-size:50px"""">N = 3</p>","v",0,NA,NA,0,"agree",20,19,19,18,19,"50","MALE","GOOD SURVEY","Strong Agreement","Moderate Agreement","Very Strong Agreement","Strong Agreement","Moderate Agreement","Slight Agreement","Strong Agreement","Strong Agreement","Strong Agreement","Very Strong Agreement","Strong Agreement","Strong Agreement","Strong Agreement","Very Strong Agreement","Very Strong Agreement","Strong Agreement","Strong Agreement","Moderate Agreement"
"80","AR1SBXX7MNOT4:3JRJSWSMQIR6MSZEQTHGVT0TEAR3E6","1",4,8,3,"50","<p style=""font-size:100px""><b>B</b></p><p style=""position: absolute; top: 30px; right: 30px; text-align:right; font-size:50px"""">N = 3</p>","B",0,73,563.799999952316,1,"agree",20,19,19,18,19,"50","MALE","GOOD SURVEY","Strong Agreement","Moderate Agreement","Very Strong Agreement","Strong Agreement","Moderate Agreement","Slight Agreement","Strong Agreement","Strong Agreement","Strong Agreement","Very Strong Agreement","Strong Agreement","Strong Agreement","Strong Agreement","Very Strong Agreement","Very Strong Agreement","Strong Agreement","Strong Agreement","Moderate Agreement"
"81","AR1SBXX7MNOT4:3JRJSWSMQIR6MSZEQTHGVT0TEAR3E6","1",4,9,3,"50","<p style=""font-size:100px""><b>v</b></p><p style=""position: absolute; top: 30px; right: 30px; text-align:right; font-size:50px"""">N = 3</p>","v",0,73,691.399999856949,1,"agree",20,19,19,18,19,"50","MALE","GOOD SURVEY","Strong Agreement","Moderate Agreement","Very Strong Agreement","Strong Agreement","Moderate Agreement","Slight Agreement","Strong Agreement","Strong Agreement","Strong Agreement","Very Strong Agreement","Strong Agreement","Strong Agreement","Strong Agreement","Very Strong Agreement","Very Strong Agreement","Strong Agreement","Strong Agreement","Moderate Agreement"
"82","AR1SBXX7MNOT4:3JRJSWSMQIR6MSZEQTHGVT0TEAR3E6","1",4,10,3,"50","<p style=""font-size:100px""><b>v</b></p><p style=""position: absolute; top: 30px; right: 30px; text-align:right; font-size:50px"""">N = 3</p>","v",0,NA,NA,0,"agree",20,19,19,18,19,"50","MALE","GOOD SURVEY","Strong Agreement","Moderate Agreement","Very Strong Agreement","Strong Agreement","Moderate Agreement","Slight Agreement","Strong Agreement","Strong Agreement","Strong Agreement","Very Strong Agreement","Strong Agreement","Strong Agreement","Strong Agreement","Very Strong Agreement","Very Strong Agreement","Strong Agreement","Strong Agreement","Moderate Agreement"
"83","AR1SBXX7MNOT4:3JRJSWSMQIR6MSZEQTHGVT0TEAR3E6","1",4,11,3,"50","<p style=""font-size:100px""><b>B</b></p><p style=""position: absolute; top: 30px; right: 30px; text-align:right; font-size:50px"""">N = 3</p>","B",0,NA,NA,0,"agree",20,19,19,18,19,"50","MALE","GOOD SURVEY","Strong Agreement","Moderate Agreement","Very Strong Agreement","Strong Agreement","Moderate Agreement","Slight Agreement","Strong Agreement","Strong Agreement","Strong Agreement","Very Strong Agreement","Strong Agreement","Strong Agreement","Strong Agreement","Very Strong Agreement","Very Strong Agreement","Strong Agreement","Strong Agreement","Moderate Agreement"
"84","AR1SBXX7MNOT4:3JRJSWSMQIR6MSZEQTHGVT0TEAR3E6","1",4,12,3,"50","<p style=""font-size:100px""><b>v</b></p><p style=""position: absolute; top: 30px; right: 30px; text-align:right; font-size:50px"""">N = 3</p>","v",0,NA,NA,0,"agree",20,19,19,18,19,"50","MALE","GOOD SURVEY","Strong Agreement","Moderate Agreement","Very Strong Agreement","Strong Agreement","Moderate Agreement","Slight Agreement","Strong Agreement","Strong Agreement","Strong Agreement","Very Strong Agreement","Strong Agreement","Strong Agreement","Strong Agreement","Very Strong Agreement","Very Strong Agreement","Strong Agreement","Strong Agreement","Moderate Agreement"
"85","AR1SBXX7MNOT4:3JRJSWSMQIR6MSZEQTHGVT0TEAR3E6","1",5,1,2,"50","<p style=""font-size:100px""><b>t</b></p><p style=""position: absolute; top: 30px; right: 30px; text-align:right; font-size:50px"""">N = 2</p>","t",0,NA,NA,0,"agree",20,19,21,20,20,"50","MALE","GOOD SURVEY","Strong Agreement","Moderate Agreement","Very Strong Agreement","Strong Agreement","Moderate Agreement","Slight Agreement","Strong Agreement","Strong Agreement","Strong Agreement","Very Strong Agreement","Strong Agreement","Strong Agreement","Strong Agreement","Very Strong Agreement","Very Strong Agreement","Strong Agreement","Strong Agreement","Moderate Agreement"
"86","AR1SBXX7MNOT4:3JRJSWSMQIR6MSZEQTHGVT0TEAR3E6","1",5,2,2,"50","<p style=""font-size:100px""><b>v</b></p><p style=""position: absolute; top: 30px; right: 30px; text-align:right; font-size:50px"""">N = 2</p>","v",0,NA,NA,0,"agree",20,19,21,20,20,"50","MALE","GOOD SURVEY","Strong Agreement","Moderate Agreement","Very Strong Agreement","Strong Agreement","Moderate Agreement","Slight Agreement","Strong Agreement","Strong Agreement","Strong Agreement","Very Strong Agreement","Strong Agreement","Strong Agreement","Strong Agreement","Very Strong Agreement","Very Strong Agreement","Strong Agreement","Strong Agreement","Moderate Agreement"
"87","AR1SBXX7MNOT4:3JRJSWSMQIR6MSZEQTHGVT0TEAR3E6","1",5,3,2,"50","<p style=""font-size:100px""><b>v</b></p><p style=""position: absolute; top: 30px; right: 30px; text-align:right; font-size:50px"""">N = 2</p>","v",0,NA,NA,0,"agree",20,19,21,20,20,"50","MALE","GOOD SURVEY","Strong Agreement","Moderate Agreement","Very Strong Agreement","Strong Agreement","Moderate Agreement","Slight Agreement","Strong Agreement","Strong Agreement","Strong Agreement","Very Strong Agreement","Strong Agreement","Strong Agreement","Strong Agreement","Very Strong Agreement","Very Strong Agreement","Strong Agreement","Strong Agreement","Moderate Agreement"
"88","AR1SBXX7MNOT4:3JRJSWSMQIR6MSZEQTHGVT0TEAR3E6","1",5,4,2,"50","<p style=""font-size:100px""><b>d</b></p><p style=""position: absolute; top: 30px; right: 30px; text-align:right; font-size:50px"""">N = 2</p>","d",0,NA,NA,0,"agree",20,19,21,20,20,"50","MALE","GOOD SURVEY","Strong Agreement","Moderate Agreement","Very Strong Agreement","Strong Agreement","Moderate Agreement","Slight Agreement","Strong Agreement","Strong Agreement","Strong Agreement","Very Strong Agreement","Strong Agreement","Strong Agreement","Strong Agreement","Very Strong Agreement","Very Strong Agreement","Strong Agreement","Strong Agreement","Moderate Agreement"
"89","AR1SBXX7MNOT4:3JRJSWSMQIR6MSZEQTHGVT0TEAR3E6","1",5,5,2,"50","<p style=""font-size:100px""><b>d</b></p><p style=""position: absolute; top: 30px; right: 30px; text-align:right; font-size:50px"""">N = 2</p>","d",0,NA,NA,0,"agree",20,19,21,20,20,"50","MALE","GOOD SURVEY","Strong Agreement","Moderate Agreement","Very Strong Agreement","Strong Agreement","Moderate Agreement","Slight Agreement","Strong Agreement","Strong Agreement","Strong Agreement","Very Strong Agreement","Strong Agreement","Strong Agreement","Strong Agreement","Very Strong Agreement","Very Strong Agreement","Strong Agreement","Strong Agreement","Moderate Agreement"
"90","AR1SBXX7MNOT4:3JRJSWSMQIR6MSZEQTHGVT0TEAR3E6","1",5,6,2,"50","<p style=""font-size:100px""><b>d</b></p><p style=""position: absolute; top: 30px; right: 30px; text-align:right; font-size:50px"""">N = 2</p>","d",0,NA,NA,0,"agree",20,19,21,20,20,"50","MALE","GOOD SURVEY","Strong Agreement","Moderate Agreement","Very Strong Agreement","Strong Agreement","Moderate Agreement","Slight Agreement","Strong Agreement","Strong Agreement","Strong Agreement","Very Strong Agreement","Strong Agreement","Strong Agreement","Strong Agreement","Very Strong Agreement","Very Strong Agreement","Strong Agreement","Strong Agreement","Moderate Agreement"
"91","AR1SBXX7MNOT4:3JRJSWSMQIR6MSZEQTHGVT0TEAR3E6","1",5,7,2,"50","<p style=""font-size:100px""><b>d</b></p><p style=""position: absolute; top: 30px; right: 30px; text-align:right; font-size:50px"""">N = 2</p>","d",0,NA,NA,0,"agree",20,19,21,20,20,"50","MALE","GOOD SURVEY","Strong Agreement","Moderate Agreement","Very Strong Agreement","Strong Agreement","Moderate Agreement","Slight Agreement","Strong Agreement","Strong Agreement","Strong Agreement","Very Strong Agreement","Strong Agreement","Strong Agreement","Strong Agreement","Very Strong Agreement","Very Strong Agreement","Strong Agreement","Strong Agreement","Moderate Agreement"
"92","AR1SBXX7MNOT4:3JRJSWSMQIR6MSZEQTHGVT0TEAR3E6","1",5,8,2,"50","<p style=""font-size:100px""><b>d</b></p><p style=""position: absolute; top: 30px; right: 30px; text-align:right; font-size:50px"""">N = 2</p>","d",0,NA,NA,0,"agree",20,19,21,20,20,"50","MALE","GOOD SURVEY","Strong Agreement","Moderate Agreement","Very Strong Agreement","Strong Agreement","Moderate Agreement","Slight Agreement","Strong Agreement","Strong Agreement","Strong Agreement","Very Strong Agreement","Strong Agreement","Strong Agreement","Strong Agreement","Very Strong Agreement","Very Strong Agreement","Strong Agreement","Strong Agreement","Moderate Agreement"
"93","AR1SBXX7MNOT4:3JRJSWSMQIR6MSZEQTHGVT0TEAR3E6","1",5,9,2,"50","<p style=""font-size:100px""><b>d</b></p><p style=""position: absolute; top: 30px; right: 30px; text-align:right; font-size:50px"""">N = 2</p>","d",0,NA,NA,0,"agree",20,19,21,20,20,"50","MALE","GOOD SURVEY","Strong Agreement","Moderate Agreement","Very Strong Agreement","Strong Agreement","Moderate Agreement","Slight Agreement","Strong Agreement","Strong Agreement","Strong Agreement","Very Strong Agreement","Strong Agreement","Strong Agreement","Strong Agreement","Very Strong Agreement","Very Strong Agreement","Strong Agreement","Strong Agreement","Moderate Agreement"
"94","AR1SBXX7MNOT4:3JRJSWSMQIR6MSZEQTHGVT0TEAR3E6","1",5,10,2,"50","<p style=""font-size:100px""><b>t</b></p><p style=""position: absolute; top: 30px; right: 30px; text-align:right; font-size:50px"""">N = 2</p>","t",0,NA,NA,0,"agree",20,19,21,20,20,"50","MALE","GOOD SURVEY","Strong Agreement","Moderate Agreement","Very Strong Agreement","Strong Agreement","Moderate Agreement","Slight Agreement","Strong Agreement","Strong Agreement","Strong Agreement","Very Strong Agreement","Strong Agreement","Strong Agreement","Strong Agreement","Very Strong Agreement","Very Strong Agreement","Strong Agreement","Strong Agreement","Moderate Agreement"
"95","AR1SBXX7MNOT4:3JRJSWSMQIR6MSZEQTHGVT0TEAR3E6","1",5,11,2,"50","<p style=""font-size:100px""><b>B</b></p><p style=""position: absolute; top: 30px; right: 30px; text-align:right; font-size:50px"""">N = 2</p>","B",0,NA,NA,0,"agree",20,19,21,20,20,"50","MALE","GOOD SURVEY","Strong Agreement","Moderate Agreement","Very Strong Agreement","Strong Agreement","Moderate Agreement","Slight Agreement","Strong Agreement","Strong Agreement","Strong Agreement","Very Strong Agreement","Strong Agreement","Strong Agreement","Strong Agreement","Very Strong Agreement","Very Strong Agreement","Strong Agreement","Strong Agreement","Moderate Agreement"
"96","AR1SBXX7MNOT4:3JRJSWSMQIR6MSZEQTHGVT0TEAR3E6","1",5,12,2,"50","<p style=""font-size:100px""><b>D</b></p><p style=""position: absolute; top: 30px; right: 30px; text-align:right; font-size:50px"""">N = 2</p>","D",0,NA,NA,0,"agree",20,19,21,20,20,"50","MALE","GOOD SURVEY","Strong Agreement","Moderate Agreement","Very Strong Agreement","Strong Agreement","Moderate Agreement","Slight Agreement","Strong Agreement","Strong Agreement","Strong Agreement","Very Strong Agreement","Strong Agreement","Strong Agreement","Strong Agreement","Very Strong Agreement","Very Strong Agreement","Strong Agreement","Strong Agreement","Moderate Agreement"
"97","AR1SBXX7MNOT4:3JRJSWSMQIR6MSZEQTHGVT0TEAR3E6","1",6,1,1,"50","<p style=""font-size:100px""><b>g</b></p><p style=""position: absolute; top: 30px; right: 30px; text-align:right; font-size:50px"""">N = 1</p>","g",0,NA,NA,0,"agree",20,20,21,20,20,"50","MALE","GOOD SURVEY","Strong Agreement","Moderate Agreement","Very Strong Agreement","Strong Agreement","Moderate Agreement","Slight Agreement","Strong Agreement","Strong Agreement","Strong Agreement","Very Strong Agreement","Strong Agreement","Strong Agreement","Strong Agreement","Very Strong Agreement","Very Strong Agreement","Strong Agreement","Strong Agreement","Moderate Agreement"
"98","AR1SBXX7MNOT4:3JRJSWSMQIR6MSZEQTHGVT0TEAR3E6","1",6,2,1,"50","<p style=""font-size:100px""><b>g</b></p><p style=""position: absolute; top: 30px; right: 30px; text-align:right; font-size:50px"""">N = 1</p>","g",0,NA,NA,0,"agree",20,20,21,20,20,"50","MALE","GOOD SURVEY","Strong Agreement","Moderate Agreement","Very Strong Agreement","Strong Agreement","Moderate Agreement","Slight Agreement","Strong Agreement","Strong Agreement","Strong Agreement","Very Strong Agreement","Strong Agreement","Strong Agreement","Strong Agreement","Very Strong Agreement","Very Strong Agreement","Strong Agreement","Strong Agreement","Moderate Agreement"
"99","AR1SBXX7MNOT4:3JRJSWSMQIR6MSZEQTHGVT0TEAR3E6","1",6,3,1,"50","<p style=""font-size:100px""><b>D</b></p><p style=""position: absolute; top: 30px; right: 30px; text-align:right; font-size:50px"""">N = 1</p>","D",0,NA,NA,0,"agree",20,20,21,20,20,"50","MALE","GOOD SURVEY","Strong Agreement","Moderate Agreement","Very Strong Agreement","Strong Agreement","Moderate Agreement","Slight Agreement","Strong Agreement","Strong Agreement","Strong Agreement","Very Strong Agreement","Strong Agreement","Strong Agreement","Strong Agreement","Very Strong Agreement","Very Strong Agreement","Strong Agreement","Strong Agreement","Moderate Agreement"
"100","AR1SBXX7MNOT4:3JRJSWSMQIR6MSZEQTHGVT0TEAR3E6","1",6,4,1,"50","<p style=""font-size:100px""><b>T</b></p><p style=""position: absolute; top: 30px; right: 30px; text-align:right; font-size:50px"""">N = 1</p>","T",0,NA,NA,0,"agree",20,20,21,20,20,"50","MALE","GOOD SURVEY","Strong Agreement","Moderate Agreement","Very Strong Agreement","Strong Agreement","Moderate Agreement","Slight Agreement","Strong Agreement","Strong Agreement","Strong Agreement","Very Strong Agreement","Strong Agreement","Strong Agreement","Strong Agreement","Very Strong Agreement","Very Strong Agreement","Strong Agreement","Strong Agreement","Moderate Agreement"
"101","AR1SBXX7MNOT4:3JRJSWSMQIR6MSZEQTHGVT0TEAR3E6","1",6,5,1,"50","<p style=""font-size:100px""><b>T</b></p><p style=""position: absolute; top: 30px; right: 30px; text-align:right; font-size:50px"""">N = 1</p>","T",0,NA,NA,0,"agree",20,20,21,20,20,"50","MALE","GOOD SURVEY","Strong Agreement","Moderate Agreement","Very Strong Agreement","Strong Agreement","Moderate Agreement","Slight Agreement","Strong Agreement","Strong Agreement","Strong Agreement","Very Strong Agreement","Strong Agreement","Strong Agreement","Strong Agreement","Very Strong Agreement","Very Strong Agreement","Strong Agreement","Strong Agreement","Moderate Agreement"
"102","AR1SBXX7MNOT4:3JRJSWSMQIR6MSZEQTHGVT0TEAR3E6","1",6,6,1,"50","<p style=""font-size:100px""><b>T</b></p><p style=""position: absolute; top: 30px; right: 30px; text-align:right; font-size:50px"""">N = 1</p>","T",0,NA,NA,0,"agree",20,20,21,20,20,"50","MALE","GOOD SURVEY","Strong Agreement","Moderate Agreement","Very Strong Agreement","Strong Agreement","Moderate Agreement","Slight Agreement","Strong Agreement","Strong Agreement","Strong Agreement","Very Strong Agreement","Strong Agreement","Strong Agreement","Strong Agreement","Very Strong Agreement","Very Strong Agreement","Strong Agreement","Strong Agreement","Moderate Agreement"
"103","AR1SBXX7MNOT4:3JRJSWSMQIR6MSZEQTHGVT0TEAR3E6","1",6,7,1,"50","<p style=""font-size:100px""><b>T</b></p><p style=""position: absolute; top: 30px; right: 30px; text-align:right; font-size:50px"""">N = 1</p>","T",0,NA,NA,0,"agree",20,20,21,20,20,"50","MALE","GOOD SURVEY","Strong Agreement","Moderate Agreement","Very Strong Agreement","Strong Agreement","Moderate Agreement","Slight Agreement","Strong Agreement","Strong Agreement","Strong Agreement","Very Strong Agreement","Strong Agreement","Strong Agreement","Strong Agreement","Very Strong Agreement","Very Strong Agreement","Strong Agreement","Strong Agreement","Moderate Agreement"
"104","AR1SBXX7MNOT4:3JRJSWSMQIR6MSZEQTHGVT0TEAR3E6","1",6,8,1,"50","<p style=""font-size:100px""><b>v</b></p><p style=""position: absolute; top: 30px; right: 30px; text-align:right; font-size:50px"""">N = 1</p>","v",0,NA,NA,0,"agree",20,20,21,20,20,"50","MALE","GOOD SURVEY","Strong Agreement","Moderate Agreement","Very Strong Agreement","Strong Agreement","Moderate Agreement","Slight Agreement","Strong Agreement","Strong Agreement","Strong Agreement","Very Strong Agreement","Strong Agreement","Strong Agreement","Strong Agreement","Very Strong Agreement","Very Strong Agreement","Strong Agreement","Strong Agreement","Moderate Agreement"
"105","AR1SBXX7MNOT4:3JRJSWSMQIR6MSZEQTHGVT0TEAR3E6","1",6,9,1,"50","<p style=""font-size:100px""><b>D</b></p><p style=""position: absolute; top: 30px; right: 30px; text-align:right; font-size:50px"""">N = 1</p>","D",0,NA,NA,0,"agree",20,20,21,20,20,"50","MALE","GOOD SURVEY","Strong Agreement","Moderate Agreement","Very Strong Agreement","Strong Agreement","Moderate Agreement","Slight Agreement","Strong Agreement","Strong Agreement","Strong Agreement","Very Strong Agreement","Strong Agreement","Strong Agreement","Strong Agreement","Very Strong Agreement","Very Strong Agreement","Strong Agreement","Strong Agreement","Moderate Agreement"
"106","AR1SBXX7MNOT4:3JRJSWSMQIR6MSZEQTHGVT0TEAR3E6","1",6,10,1,"50","<p style=""font-size:100px""><b>v</b></p><p style=""position: absolute; top: 30px; right: 30px; text-align:right; font-size:50px"""">N = 1</p>","v",0,NA,NA,0,"agree",20,20,21,20,20,"50","MALE","GOOD SURVEY","Strong Agreement","Moderate Agreement","Very Strong Agreement","Strong Agreement","Moderate Agreement","Slight Agreement","Strong Agreement","Strong Agreement","Strong Agreement","Very Strong Agreement","Strong Agreement","Strong Agreement","Strong Agreement","Very Strong Agreement","Very Strong Agreement","Strong Agreement","Strong Agreement","Moderate Agreement"
"107","AR1SBXX7MNOT4:3JRJSWSMQIR6MSZEQTHGVT0TEAR3E6","1",6,11,1,"50","<p style=""font-size:100px""><b>D</b></p><p style=""position: absolute; top: 30px; right: 30px; text-align:right; font-size:50px"""">N = 1</p>","D",0,NA,NA,0,"agree",20,20,21,20,20,"50","MALE","GOOD SURVEY","Strong Agreement","Moderate Agreement","Very Strong Agreement","Strong Agreement","Moderate Agreement","Slight Agreement","Strong Agreement","Strong Agreement","Strong Agreement","Very Strong Agreement","Strong Agreement","Strong Agreement","Strong Agreement","Very Strong Agreement","Very Strong Agreement","Strong Agreement","Strong Agreement","Moderate Agreement"
"108","AR1SBXX7MNOT4:3JRJSWSMQIR6MSZEQTHGVT0TEAR3E6","1",6,12,1,"50","<p style=""font-size:100px""><b>B</b></p><p style=""position: absolute; top: 30px; right: 30px; text-align:right; font-size:50px"""">N = 1</p>","B",0,NA,NA,0,"agree",20,20,21,20,20,"50","MALE","GOOD SURVEY","Strong Agreement","Moderate Agreement","Very Strong Agreement","Strong Agreement","Moderate Agreement","Slight Agreement","Strong Agreement","Strong Agreement","Strong Agreement","Very Strong Agreement","Strong Agreement","Strong Agreement","Strong Agreement","Very Strong Agreement","Very Strong Agreement","Strong Agreement","Strong Agreement","Moderate Agreement"
"109","AR1SBXX7MNOT4:3JRJSWSMQIR6MSZEQTHGVT0TEAR3E6","2",7,1,1,"5","<p style=""font-size:100px""><b>p</b></p><p style=""position: absolute; top: 30px; right: 30px; text-align:right; font-size:50px"""">N = 1</p>","p",0,NA,NA,0,"agree",20,19,18,20,19,"50","MALE","GOOD SURVEY","Strong Agreement","Moderate Agreement","Very Strong Agreement","Strong Agreement","Moderate Agreement","Slight Agreement","Strong Agreement","Strong Agreement","Strong Agreement","Very Strong Agreement","Strong Agreement","Strong Agreement","Strong Agreement","Very Strong Agreement","Very Strong Agreement","Strong Agreement","Strong Agreement","Moderate Agreement"
"110","AR1SBXX7MNOT4:3JRJSWSMQIR6MSZEQTHGVT0TEAR3E6","2",7,2,1,"5","<p style=""font-size:100px""><b>b</b></p><p style=""position: absolute; top: 30px; right: 30px; text-align:right; font-size:50px"""">N = 1</p>","b",0,69,422.600000143051,0,"agree",20,19,18,20,19,"50","MALE","GOOD SURVEY","Strong Agreement","Moderate Agreement","Very Strong Agreement","Strong Agreement","Moderate Agreement","Slight Agreement","Strong Agreement","Strong Agreement","Strong Agreement","Very Strong Agreement","Strong Agreement","Strong Agreement","Strong Agreement","Very Strong Agreement","Very Strong Agreement","Strong Agreement","Strong Agreement","Moderate Agreement"
"111","AR1SBXX7MNOT4:3JRJSWSMQIR6MSZEQTHGVT0TEAR3E6","2",7,3,1,"5","<p style=""font-size:100px""><b>b</b></p><p style=""position: absolute; top: 30px; right: 30px; text-align:right; font-size:50px"""">N = 1</p>","b",0,69,962.799999952316,0,"agree",20,19,18,20,19,"50","MALE","GOOD SURVEY","Strong Agreement","Moderate Agreement","Very Strong Agreement","Strong Agreement","Moderate Agreement","Slight Agreement","Strong Agreement","Strong Agreement","Strong Agreement","Very Strong Agreement","Strong Agreement","Strong Agreement","Strong Agreement","Very Strong Agreement","Very Strong Agreement","Strong Agreement","Strong Agreement","Moderate Agreement"
"112","AR1SBXX7MNOT4:3JRJSWSMQIR6MSZEQTHGVT0TEAR3E6","2",7,4,1,"5","<p style=""font-size:100px""><b>b</b></p><p style=""position: absolute; top: 30px; right: 30px; text-align:right; font-size:50px"""">N = 1</p>","b",0,73,469.400000095367,1,"agree",20,19,18,20,19,"50","MALE","GOOD SURVEY","Strong Agreement","Moderate Agreement","Very Strong Agreement","Strong Agreement","Moderate Agreement","Slight Agreement","Strong Agreement","Strong Agreement","Strong Agreement","Very Strong Agreement","Strong Agreement","Strong Agreement","Strong Agreement","Very Strong Agreement","Very Strong Agreement","Strong Agreement","Strong Agreement","Moderate Agreement"
"113","AR1SBXX7MNOT4:3JRJSWSMQIR6MSZEQTHGVT0TEAR3E6","2",7,5,1,"5","<p style=""font-size:100px""><b>P</b></p><p style=""position: absolute; top: 30px; right: 30px; text-align:right; font-size:50px"""">N = 1</p>","P",0,NA,NA,0,"agree",20,19,18,20,19,"50","MALE","GOOD SURVEY","Strong Agreement","Moderate Agreement","Very Strong Agreement","Strong Agreement","Moderate Agreement","Slight Agreement","Strong Agreement","Strong Agreement","Strong Agreement","Very Strong Agreement","Strong Agreement","Strong Agreement","Strong Agreement","Very Strong Agreement","Very Strong Agreement","Strong Agreement","Strong Agreement","Moderate Agreement"
"114","AR1SBXX7MNOT4:3JRJSWSMQIR6MSZEQTHGVT0TEAR3E6","2",7,6,1,"5","<p style=""font-size:100px""><b>T</b></p><p style=""position: absolute; top: 30px; right: 30px; text-align:right; font-size:50px"""">N = 1</p>","T",0,NA,NA,0,"agree",20,19,18,20,19,"50","MALE","GOOD SURVEY","Strong Agreement","Moderate Agreement","Very Strong Agreement","Strong Agreement","Moderate Agreement","Slight Agreement","Strong Agreement","Strong Agreement","Strong Agreement","Very Strong Agreement","Strong Agreement","Strong Agreement","Strong Agreement","Very Strong Agreement","Very Strong Agreement","Strong Agreement","Strong Agreement","Moderate Agreement"
"115","AR1SBXX7MNOT4:3JRJSWSMQIR6MSZEQTHGVT0TEAR3E6","2",7,7,1,"5","<p style=""font-size:100px""><b>p</b></p><p style=""position: absolute; top: 30px; right: 30px; text-align:right; font-size:50px"""">N = 1</p>","p",0,NA,NA,0,"agree",20,19,18,20,19,"50","MALE","GOOD SURVEY","Strong Agreement","Moderate Agreement","Very Strong Agreement","Strong Agreement","Moderate Agreement","Slight Agreement","Strong Agreement","Strong Agreement","Strong Agreement","Very Strong Agreement","Strong Agreement","Strong Agreement","Strong Agreement","Very Strong Agreement","Very Strong Agreement","Strong Agreement","Strong Agreement","Moderate Agreement"
"116","AR1SBXX7MNOT4:3JRJSWSMQIR6MSZEQTHGVT0TEAR3E6","2",7,8,1,"5","<p style=""font-size:100px""><b>p</b></p><p style=""position: absolute; top: 30px; right: 30px; text-align:right; font-size:50px"""">N = 1</p>","p",0,NA,NA,0,"agree",20,19,18,20,19,"50","MALE","GOOD SURVEY","Strong Agreement","Moderate Agreement","Very Strong Agreement","Strong Agreement","Moderate Agreement","Slight Agreement","Strong Agreement","Strong Agreement","Strong Agreement","Very Strong Agreement","Strong Agreement","Strong Agreement","Strong Agreement","Very Strong Agreement","Very Strong Agreement","Strong Agreement","Strong Agreement","Moderate Agreement"
"117","AR1SBXX7MNOT4:3JRJSWSMQIR6MSZEQTHGVT0TEAR3E6","2",7,9,1,"5","<p style=""font-size:100px""><b>t</b></p><p style=""position: absolute; top: 30px; right: 30px; text-align:right; font-size:50px"""">N = 1</p>","t",0,NA,NA,0,"agree",20,19,18,20,19,"50","MALE","GOOD SURVEY","Strong Agreement","Moderate Agreement","Very Strong Agreement","Strong Agreement","Moderate Agreement","Slight Agreement","Strong Agreement","Strong Agreement","Strong Agreement","Very Strong Agreement","Strong Agreement","Strong Agreement","Strong Agreement","Very Strong Agreement","Very Strong Agreement","Strong Agreement","Strong Agreement","Moderate Agreement"
"118","AR1SBXX7MNOT4:3JRJSWSMQIR6MSZEQTHGVT0TEAR3E6","2",7,10,1,"5","<p style=""font-size:100px""><b>p</b></p><p style=""position: absolute; top: 30px; right: 30px; text-align:right; font-size:50px"""">N = 1</p>","p",0,NA,NA,0,"agree",20,19,18,20,19,"50","MALE","GOOD SURVEY","Strong Agreement","Moderate Agreement","Very Strong Agreement","Strong Agreement","Moderate Agreement","Slight Agreement","Strong Agreement","Strong Agreement","Strong Agreement","Very Strong Agreement","Strong Agreement","Strong Agreement","Strong Agreement","Very Strong Agreement","Very Strong Agreement","Strong Agreement","Strong Agreement","Moderate Agreement"
"119","AR1SBXX7MNOT4:3JRJSWSMQIR6MSZEQTHGVT0TEAR3E6","2",7,11,1,"5","<p style=""font-size:100px""><b>T</b></p><p style=""position: absolute; top: 30px; right: 30px; text-align:right; font-size:50px"""">N = 1</p>","T",0,NA,NA,0,"agree",20,19,18,20,19,"50","MALE","GOOD SURVEY","Strong Agreement","Moderate Agreement","Very Strong Agreement","Strong Agreement","Moderate Agreement","Slight Agreement","Strong Agreement","Strong Agreement","Strong Agreement","Very Strong Agreement","Strong Agreement","Strong Agreement","Strong Agreement","Very Strong Agreement","Very Strong Agreement","Strong Agreement","Strong Agreement","Moderate Agreement"
"120","AR1SBXX7MNOT4:3JRJSWSMQIR6MSZEQTHGVT0TEAR3E6","2",7,12,1,"5","<p style=""font-size:100px""><b>T</b></p><p style=""position: absolute; top: 30px; right: 30px; text-align:right; font-size:50px"""">N = 1</p>","T",0,NA,NA,0,"agree",20,19,18,20,19,"50","MALE","GOOD SURVEY","Strong Agreement","Moderate Agreement","Very Strong Agreement","Strong Agreement","Moderate Agreement","Slight Agreement","Strong Agreement","Strong Agreement","Strong Agreement","Very Strong Agreement","Strong Agreement","Strong Agreement","Strong Agreement","Very Strong Agreement","Very Strong Agreement","Strong Agreement","Strong Agreement","Moderate Agreement"
"121","AR1SBXX7MNOT4:3JRJSWSMQIR6MSZEQTHGVT0TEAR3E6","2",8,1,1,"5","<p style=""font-size:100px""><b>d</b></p><p style=""position: absolute; top: 30px; right: 30px; text-align:right; font-size:50px"""">N = 1</p>","d",0,NA,NA,0,"agree",17,20,11,13,19,"50","MALE","GOOD SURVEY","Strong Agreement","Moderate Agreement","Very Strong Agreement","Strong Agreement","Moderate Agreement","Slight Agreement","Strong Agreement","Strong Agreement","Strong Agreement","Very Strong Agreement","Strong Agreement","Strong Agreement","Strong Agreement","Very Strong Agreement","Very Strong Agreement","Strong Agreement","Strong Agreement","Moderate Agreement"
"122","AR1SBXX7MNOT4:3JRJSWSMQIR6MSZEQTHGVT0TEAR3E6","2",8,2,1,"5","<p style=""font-size:100px""><b>P</b></p><p style=""position: absolute; top: 30px; right: 30px; text-align:right; font-size:50px"""">N = 1</p>","P",0,NA,NA,0,"agree",17,20,11,13,19,"50","MALE","GOOD SURVEY","Strong Agreement","Moderate Agreement","Very Strong Agreement","Strong Agreement","Moderate Agreement","Slight Agreement","Strong Agreement","Strong Agreement","Strong Agreement","Very Strong Agreement","Strong Agreement","Strong Agreement","Strong Agreement","Very Strong Agreement","Very Strong Agreement","Strong Agreement","Strong Agreement","Moderate Agreement"
"123","AR1SBXX7MNOT4:3JRJSWSMQIR6MSZEQTHGVT0TEAR3E6","2",8,3,1,"5","<p style=""font-size:100px""><b>t</b></p><p style=""position: absolute; top: 30px; right: 30px; text-align:right; font-size:50px"""">N = 1</p>","t",0,NA,NA,0,"agree",17,20,11,13,19,"50","MALE","GOOD SURVEY","Strong Agreement","Moderate Agreement","Very Strong Agreement","Strong Agreement","Moderate Agreement","Slight Agreement","Strong Agreement","Strong Agreement","Strong Agreement","Very Strong Agreement","Strong Agreement","Strong Agreement","Strong Agreement","Very Strong Agreement","Very Strong Agreement","Strong Agreement","Strong Agreement","Moderate Agreement"
"124","AR1SBXX7MNOT4:3JRJSWSMQIR6MSZEQTHGVT0TEAR3E6","2",8,4,1,"5","<p style=""font-size:100px""><b>g</b></p><p style=""position: absolute; top: 30px; right: 30px; text-align:right; font-size:50px"""">N = 1</p>","g",0,NA,NA,0,"agree",17,20,11,13,19,"50","MALE","GOOD SURVEY","Strong Agreement","Moderate Agreement","Very Strong Agreement","Strong Agreement","Moderate Agreement","Slight Agreement","Strong Agreement","Strong Agreement","Strong Agreement","Very Strong Agreement","Strong Agreement","Strong Agreement","Strong Agreement","Very Strong Agreement","Very Strong Agreement","Strong Agreement","Strong Agreement","Moderate Agreement"
"125","AR1SBXX7MNOT4:3JRJSWSMQIR6MSZEQTHGVT0TEAR3E6","2",8,5,1,"5","<p style=""font-size:100px""><b>g</b></p><p style=""position: absolute; top: 30px; right: 30px; text-align:right; font-size:50px"""">N = 1</p>","g",0,NA,NA,0,"agree",17,20,11,13,19,"50","MALE","GOOD SURVEY","Strong Agreement","Moderate Agreement","Very Strong Agreement","Strong Agreement","Moderate Agreement","Slight Agreement","Strong Agreement","Strong Agreement","Strong Agreement","Very Strong Agreement","Strong Agreement","Strong Agreement","Strong Agreement","Very Strong Agreement","Very Strong Agreement","Strong Agreement","Strong Agreement","Moderate Agreement"
"126","AR1SBXX7MNOT4:3JRJSWSMQIR6MSZEQTHGVT0TEAR3E6","2",8,6,1,"5","<p style=""font-size:100px""><b>v</b></p><p style=""position: absolute; top: 30px; right: 30px; text-align:right; font-size:50px"""">N = 1</p>","v",0,NA,NA,0,"agree",17,20,11,13,19,"50","MALE","GOOD SURVEY","Strong Agreement","Moderate Agreement","Very Strong Agreement","Strong Agreement","Moderate Agreement","Slight Agreement","Strong Agreement","Strong Agreement","Strong Agreement","Very Strong Agreement","Strong Agreement","Strong Agreement","Strong Agreement","Very Strong Agreement","Very Strong Agreement","Strong Agreement","Strong Agreement","Moderate Agreement"
"127","AR1SBXX7MNOT4:3JRJSWSMQIR6MSZEQTHGVT0TEAR3E6","2",8,7,1,"5","<p style=""font-size:100px""><b>v</b></p><p style=""position: absolute; top: 30px; right: 30px; text-align:right; font-size:50px"""">N = 1</p>","v",0,NA,NA,0,"agree",17,20,11,13,19,"50","MALE","GOOD SURVEY","Strong Agreement","Moderate Agreement","Very Strong Agreement","Strong Agreement","Moderate Agreement","Slight Agreement","Strong Agreement","Strong Agreement","Strong Agreement","Very Strong Agreement","Strong Agreement","Strong Agreement","Strong Agreement","Very Strong Agreement","Very Strong Agreement","Strong Agreement","Strong Agreement","Moderate Agreement"
"128","AR1SBXX7MNOT4:3JRJSWSMQIR6MSZEQTHGVT0TEAR3E6","2",8,8,1,"5","<p style=""font-size:100px""><b>P</b></p><p style=""position: absolute; top: 30px; right: 30px; text-align:right; font-size:50px"""">N = 1</p>","P",0,NA,NA,0,"agree",17,20,11,13,19,"50","MALE","GOOD SURVEY","Strong Agreement","Moderate Agreement","Very Strong Agreement","Strong Agreement","Moderate Agreement","Slight Agreement","Strong Agreement","Strong Agreement","Strong Agreement","Very Strong Agreement","Strong Agreement","Strong Agreement","Strong Agreement","Very Strong Agreement","Very Strong Agreement","Strong Agreement","Strong Agreement","Moderate Agreement"
"129","AR1SBXX7MNOT4:3JRJSWSMQIR6MSZEQTHGVT0TEAR3E6","2",8,9,1,"5","<p style=""font-size:100px""><b>P</b></p><p style=""position: absolute; top: 30px; right: 30px; text-align:right; font-size:50px"""">N = 1</p>","P",0,NA,NA,0,"agree",17,20,11,13,19,"50","MALE","GOOD SURVEY","Strong Agreement","Moderate Agreement","Very Strong Agreement","Strong Agreement","Moderate Agreement","Slight Agreement","Strong Agreement","Strong Agreement","Strong Agreement","Very Strong Agreement","Strong Agreement","Strong Agreement","Strong Agreement","Very Strong Agreement","Very Strong Agreement","Strong Agreement","Strong Agreement","Moderate Agreement"
"130","AR1SBXX7MNOT4:3JRJSWSMQIR6MSZEQTHGVT0TEAR3E6","2",8,10,1,"5","<p style=""font-size:100px""><b>D</b></p><p style=""position: absolute; top: 30px; right: 30px; text-align:right; font-size:50px"""">N = 1</p>","D",0,NA,NA,0,"agree",17,20,11,13,19,"50","MALE","GOOD SURVEY","Strong Agreement","Moderate Agreement","Very Strong Agreement","Strong Agreement","Moderate Agreement","Slight Agreement","Strong Agreement","Strong Agreement","Strong Agreement","Very Strong Agreement","Strong Agreement","Strong Agreement","Strong Agreement","Very Strong Agreement","Very Strong Agreement","Strong Agreement","Strong Agreement","Moderate Agreement"
"131","AR1SBXX7MNOT4:3JRJSWSMQIR6MSZEQTHGVT0TEAR3E6","2",8,11,1,"5","<p style=""font-size:100px""><b>b</b></p><p style=""position: absolute; top: 30px; right: 30px; text-align:right; font-size:50px"""">N = 1</p>","b",0,NA,NA,0,"agree",17,20,11,13,19,"50","MALE","GOOD SURVEY","Strong Agreement","Moderate Agreement","Very Strong Agreement","Strong Agreement","Moderate Agreement","Slight Agreement","Strong Agreement","Strong Agreement","Strong Agreement","Very Strong Agreement","Strong Agreement","Strong Agreement","Strong Agreement","Very Strong Agreement","Very Strong Agreement","Strong Agreement","Strong Agreement","Moderate Agreement"
"132","AR1SBXX7MNOT4:3JRJSWSMQIR6MSZEQTHGVT0TEAR3E6","2",8,12,1,"5","<p style=""font-size:100px""><b>b</b></p><p style=""position: absolute; top: 30px; right: 30px; text-align:right; font-size:50px"""">N = 1</p>","b",0,NA,NA,0,"agree",17,20,11,13,19,"50","MALE","GOOD SURVEY","Strong Agreement","Moderate Agreement","Very Strong Agreement","Strong Agreement","Moderate Agreement","Slight Agreement","Strong Agreement","Strong Agreement","Strong Agreement","Very Strong Agreement","Strong Agreement","Strong Agreement","Strong Agreement","Very Strong Agreement","Very Strong Agreement","Strong Agreement","Strong Agreement","Moderate Agreement"
"133","AR1SBXX7MNOT4:3JRJSWSMQIR6MSZEQTHGVT0TEAR3E6","2",9,1,3,"5","<p style=""font-size:100px""><b>b</b></p><p style=""position: absolute; top: 30px; right: 30px; text-align:right; font-size:50px"""">N = 3</p>","b",0,NA,NA,0,"agree",19,18,15,20,18,"50","MALE","GOOD SURVEY","Strong Agreement","Moderate Agreement","Very Strong Agreement","Strong Agreement","Moderate Agreement","Slight Agreement","Strong Agreement","Strong Agreement","Strong Agreement","Very Strong Agreement","Strong Agreement","Strong Agreement","Strong Agreement","Very Strong Agreement","Very Strong Agreement","Strong Agreement","Strong Agreement","Moderate Agreement"
"134","AR1SBXX7MNOT4:3JRJSWSMQIR6MSZEQTHGVT0TEAR3E6","2",9,2,3,"5","<p style=""font-size:100px""><b>t</b></p><p style=""position: absolute; top: 30px; right: 30px; text-align:right; font-size:50px"""">N = 3</p>","t",0,NA,NA,0,"agree",19,18,15,20,18,"50","MALE","GOOD SURVEY","Strong Agreement","Moderate Agreement","Very Strong Agreement","Strong Agreement","Moderate Agreement","Slight Agreement","Strong Agreement","Strong Agreement","Strong Agreement","Very Strong Agreement","Strong Agreement","Strong Agreement","Strong Agreement","Very Strong Agreement","Very Strong Agreement","Strong Agreement","Strong Agreement","Moderate Agreement"
"135","AR1SBXX7MNOT4:3JRJSWSMQIR6MSZEQTHGVT0TEAR3E6","2",9,3,3,"5","<p style=""font-size:100px""><b>T</b></p><p style=""position: absolute; top: 30px; right: 30px; text-align:right; font-size:50px"""">N = 3</p>","T",0,NA,NA,0,"agree",19,18,15,20,18,"50","MALE","GOOD SURVEY","Strong Agreement","Moderate Agreement","Very Strong Agreement","Strong Agreement","Moderate Agreement","Slight Agreement","Strong Agreement","Strong Agreement","Strong Agreement","Very Strong Agreement","Strong Agreement","Strong Agreement","Strong Agreement","Very Strong Agreement","Very Strong Agreement","Strong Agreement","Strong Agreement","Moderate Agreement"
"136","AR1SBXX7MNOT4:3JRJSWSMQIR6MSZEQTHGVT0TEAR3E6","2",9,4,3,"5","<p style=""font-size:100px""><b>v</b></p><p style=""position: absolute; top: 30px; right: 30px; text-align:right; font-size:50px"""">N = 3</p>","v",0,NA,NA,0,"agree",19,18,15,20,18,"50","MALE","GOOD SURVEY","Strong Agreement","Moderate Agreement","Very Strong Agreement","Strong Agreement","Moderate Agreement","Slight Agreement","Strong Agreement","Strong Agreement","Strong Agreement","Very Strong Agreement","Strong Agreement","Strong Agreement","Strong Agreement","Very Strong Agreement","Very Strong Agreement","Strong Agreement","Strong Agreement","Moderate Agreement"
"137","AR1SBXX7MNOT4:3JRJSWSMQIR6MSZEQTHGVT0TEAR3E6","2",9,5,3,"5","<p style=""font-size:100px""><b>G</b></p><p style=""position: absolute; top: 30px; right: 30px; text-align:right; font-size:50px"""">N = 3</p>","G",0,NA,NA,0,"agree",19,18,15,20,18,"50","MALE","GOOD SURVEY","Strong Agreement","Moderate Agreement","Very Strong Agreement","Strong Agreement","Moderate Agreement","Slight Agreement","Strong Agreement","Strong Agreement","Strong Agreement","Very Strong Agreement","Strong Agreement","Strong Agreement","Strong Agreement","Very Strong Agreement","Very Strong Agreement","Strong Agreement","Strong Agreement","Moderate Agreement"
"138","AR1SBXX7MNOT4:3JRJSWSMQIR6MSZEQTHGVT0TEAR3E6","2",9,6,3,"5","<p style=""font-size:100px""><b>g</b></p><p style=""position: absolute; top: 30px; right: 30px; text-align:right; font-size:50px"""">N = 3</p>","g",0,NA,NA,0,"agree",19,18,15,20,18,"50","MALE","GOOD SURVEY","Strong Agreement","Moderate Agreement","Very Strong Agreement","Strong Agreement","Moderate Agreement","Slight Agreement","Strong Agreement","Strong Agreement","Strong Agreement","Very Strong Agreement","Strong Agreement","Strong Agreement","Strong Agreement","Very Strong Agreement","Very Strong Agreement","Strong Agreement","Strong Agreement","Moderate Agreement"
"139","AR1SBXX7MNOT4:3JRJSWSMQIR6MSZEQTHGVT0TEAR3E6","2",9,7,3,"5","<p style=""font-size:100px""><b>b</b></p><p style=""position: absolute; top: 30px; right: 30px; text-align:right; font-size:50px"""">N = 3</p>","b",0,73,146.799999952316,1,"agree",19,18,15,20,18,"50","MALE","GOOD SURVEY","Strong Agreement","Moderate Agreement","Very Strong Agreement","Strong Agreement","Moderate Agreement","Slight Agreement","Strong Agreement","Strong Agreement","Strong Agreement","Very Strong Agreement","Strong Agreement","Strong Agreement","Strong Agreement","Very Strong Agreement","Very Strong Agreement","Strong Agreement","Strong Agreement","Moderate Agreement"
"140","AR1SBXX7MNOT4:3JRJSWSMQIR6MSZEQTHGVT0TEAR3E6","2",9,8,3,"5","<p style=""font-size:100px""><b>G</b></p><p style=""position: absolute; top: 30px; right: 30px; text-align:right; font-size:50px"""">N = 3</p>","G",0,73,163.5,1,"agree",19,18,15,20,18,"50","MALE","GOOD SURVEY","Strong Agreement","Moderate Agreement","Very Strong Agreement","Strong Agreement","Moderate Agreement","Slight Agreement","Strong Agreement","Strong Agreement","Strong Agreement","Very Strong Agreement","Strong Agreement","Strong Agreement","Strong Agreement","Very Strong Agreement","Very Strong Agreement","Strong Agreement","Strong Agreement","Moderate Agreement"
"141","AR1SBXX7MNOT4:3JRJSWSMQIR6MSZEQTHGVT0TEAR3E6","2",9,9,3,"5","<p style=""font-size:100px""><b>g</b></p><p style=""position: absolute; top: 30px; right: 30px; text-align:right; font-size:50px"""">N = 3</p>","g",0,73,153.799999952316,1,"agree",19,18,15,20,18,"50","MALE","GOOD SURVEY","Strong Agreement","Moderate Agreement","Very Strong Agreement","Strong Agreement","Moderate Agreement","Slight Agreement","Strong Agreement","Strong Agreement","Strong Agreement","Very Strong Agreement","Strong Agreement","Strong Agreement","Strong Agreement","Very Strong Agreement","Very Strong Agreement","Strong Agreement","Strong Agreement","Moderate Agreement"
"142","AR1SBXX7MNOT4:3JRJSWSMQIR6MSZEQTHGVT0TEAR3E6","2",9,10,3,"5","<p style=""font-size:100px""><b>b</b></p><p style=""position: absolute; top: 30px; right: 30px; text-align:right; font-size:50px"""">N = 3</p>","b",0,73,215.400000095367,1,"agree",19,18,15,20,18,"50","MALE","GOOD SURVEY","Strong Agreement","Moderate Agreement","Very Strong Agreement","Strong Agreement","Moderate Agreement","Slight Agreement","Strong Agreement","Strong Agreement","Strong Agreement","Very Strong Agreement","Strong Agreement","Strong Agreement","Strong Agreement","Very Strong Agreement","Very Strong Agreement","Strong Agreement","Strong Agreement","Moderate Agreement"
"143","AR1SBXX7MNOT4:3JRJSWSMQIR6MSZEQTHGVT0TEAR3E6","2",9,11,3,"5","<p style=""font-size:100px""><b>G</b></p><p style=""position: absolute; top: 30px; right: 30px; text-align:right; font-size:50px"""">N = 3</p>","G",0,73,108.599999904633,1,"agree",19,18,15,20,18,"50","MALE","GOOD SURVEY","Strong Agreement","Moderate Agreement","Very Strong Agreement","Strong Agreement","Moderate Agreement","Slight Agreement","Strong Agreement","Strong Agreement","Strong Agreement","Very Strong Agreement","Strong Agreement","Strong Agreement","Strong Agreement","Very Strong Agreement","Very Strong Agreement","Strong Agreement","Strong Agreement","Moderate Agreement"
"144","AR1SBXX7MNOT4:3JRJSWSMQIR6MSZEQTHGVT0TEAR3E6","2",9,12,3,"5","<p style=""font-size:100px""><b>p</b></p><p style=""position: absolute; top: 30px; right: 30px; text-align:right; font-size:50px"""">N = 3</p>","p",0,73,239,1,"agree",19,18,15,20,18,"50","MALE","GOOD SURVEY","Strong Agreement","Moderate Agreement","Very Strong Agreement","Strong Agreement","Moderate Agreement","Slight Agreement","Strong Agreement","Strong Agreement","Strong Agreement","Very Strong Agreement","Strong Agreement","Strong Agreement","Strong Agreement","Very Strong Agreement","Very Strong Agreement","Strong Agreement","Strong Agreement","Moderate Agreement"
"145","AR1SBXX7MNOT4:3JRJSWSMQIR6MSZEQTHGVT0TEAR3E6","2",10,1,3,"5","<p style=""font-size:100px""><b>d</b></p><p style=""position: absolute; top: 30px; right: 30px; text-align:right; font-size:50px"""">N = 3</p>","d",0,NA,NA,0,"agree",20,21,16,20,17,"50","MALE","GOOD SURVEY","Strong Agreement","Moderate Agreement","Very Strong Agreement","Strong Agreement","Moderate Agreement","Slight Agreement","Strong Agreement","Strong Agreement","Strong Agreement","Very Strong Agreement","Strong Agreement","Strong Agreement","Strong Agreement","Very Strong Agreement","Very Strong Agreement","Strong Agreement","Strong Agreement","Moderate Agreement"
"146","AR1SBXX7MNOT4:3JRJSWSMQIR6MSZEQTHGVT0TEAR3E6","2",10,2,3,"5","<p style=""font-size:100px""><b>v</b></p><p style=""position: absolute; top: 30px; right: 30px; text-align:right; font-size:50px"""">N = 3</p>","v",0,NA,NA,0,"agree",20,21,16,20,17,"50","MALE","GOOD SURVEY","Strong Agreement","Moderate Agreement","Very Strong Agreement","Strong Agreement","Moderate Agreement","Slight Agreement","Strong Agreement","Strong Agreement","Strong Agreement","Very Strong Agreement","Strong Agreement","Strong Agreement","Strong Agreement","Very Strong Agreement","Very Strong Agreement","Strong Agreement","Strong Agreement","Moderate Agreement"
"147","AR1SBXX7MNOT4:3JRJSWSMQIR6MSZEQTHGVT0TEAR3E6","2",10,3,3,"5","<p style=""font-size:100px""><b>T</b></p><p style=""position: absolute; top: 30px; right: 30px; text-align:right; font-size:50px"""">N = 3</p>","T",0,73,540.200000047684,1,"agree",20,21,16,20,17,"50","MALE","GOOD SURVEY","Strong Agreement","Moderate Agreement","Very Strong Agreement","Strong Agreement","Moderate Agreement","Slight Agreement","Strong Agreement","Strong Agreement","Strong Agreement","Very Strong Agreement","Strong Agreement","Strong Agreement","Strong Agreement","Very Strong Agreement","Very Strong Agreement","Strong Agreement","Strong Agreement","Moderate Agreement"
"148","AR1SBXX7MNOT4:3JRJSWSMQIR6MSZEQTHGVT0TEAR3E6","2",10,4,3,"5","<p style=""font-size:100px""><b>P</b></p><p style=""position: absolute; top: 30px; right: 30px; text-align:right; font-size:50px"""">N = 3</p>","P",0,73,142.699999809265,1,"agree",20,21,16,20,17,"50","MALE","GOOD SURVEY","Strong Agreement","Moderate Agreement","Very Strong Agreement","Strong Agreement","Moderate Agreement","Slight Agreement","Strong Agreement","Strong Agreement","Strong Agreement","Very Strong Agreement","Strong Agreement","Strong Agreement","Strong Agreement","Very Strong Agreement","Very Strong Agreement","Strong Agreement","Strong Agreement","Moderate Agreement"
"149","AR1SBXX7MNOT4:3JRJSWSMQIR6MSZEQTHGVT0TEAR3E6","2",10,5,3,"5","<p style=""font-size:100px""><b>v</b></p><p style=""position: absolute; top: 30px; right: 30px; text-align:right; font-size:50px"""">N = 3</p>","v",0,73,349,1,"agree",20,21,16,20,17,"50","MALE","GOOD SURVEY","Strong Agreement","Moderate Agreement","Very Strong Agreement","Strong Agreement","Moderate Agreement","Slight Agreement","Strong Agreement","Strong Agreement","Strong Agreement","Very Strong Agreement","Strong Agreement","Strong Agreement","Strong Agreement","Very Strong Agreement","Very Strong Agreement","Strong Agreement","Strong Agreement","Moderate Agreement"
"150","AR1SBXX7MNOT4:3JRJSWSMQIR6MSZEQTHGVT0TEAR3E6","2",10,6,3,"5","<p style=""font-size:100px""><b>g</b></p><p style=""position: absolute; top: 30px; right: 30px; text-align:right; font-size:50px"""">N = 3</p>","g",0,73,393.799999952316,1,"agree",20,21,16,20,17,"50","MALE","GOOD SURVEY","Strong Agreement","Moderate Agreement","Very Strong Agreement","Strong Agreement","Moderate Agreement","Slight Agreement","Strong Agreement","Strong Agreement","Strong Agreement","Very Strong Agreement","Strong Agreement","Strong Agreement","Strong Agreement","Very Strong Agreement","Very Strong Agreement","Strong Agreement","Strong Agreement","Moderate Agreement"
"151","AR1SBXX7MNOT4:3JRJSWSMQIR6MSZEQTHGVT0TEAR3E6","2",10,7,3,"5","<p style=""font-size:100px""><b>b</b></p><p style=""position: absolute; top: 30px; right: 30px; text-align:right; font-size:50px"""">N = 3</p>","b",0,73,153,1,"agree",20,21,16,20,17,"50","MALE","GOOD SURVEY","Strong Agreement","Moderate Agreement","Very Strong Agreement","Strong Agreement","Moderate Agreement","Slight Agreement","Strong Agreement","Strong Agreement","Strong Agreement","Very Strong Agreement","Strong Agreement","Strong Agreement","Strong Agreement","Very Strong Agreement","Very Strong Agreement","Strong Agreement","Strong Agreement","Moderate Agreement"
"152","AR1SBXX7MNOT4:3JRJSWSMQIR6MSZEQTHGVT0TEAR3E6","2",10,8,3,"5","<p style=""font-size:100px""><b>D</b></p><p style=""position: absolute; top: 30px; right: 30px; text-align:right; font-size:50px"""">N = 3</p>","D",0,73,47.6000001430511,1,"agree",20,21,16,20,17,"50","MALE","GOOD SURVEY","Strong Agreement","Moderate Agreement","Very Strong Agreement","Strong Agreement","Moderate Agreement","Slight Agreement","Strong Agreement","Strong Agreement","Strong Agreement","Very Strong Agreement","Strong Agreement","Strong Agreement","Strong Agreement","Very Strong Agreement","Very Strong Agreement","Strong Agreement","Strong Agreement","Moderate Agreement"
"153","AR1SBXX7MNOT4:3JRJSWSMQIR6MSZEQTHGVT0TEAR3E6","2",10,9,3,"5","<p style=""font-size:100px""><b>g</b></p><p style=""position: absolute; top: 30px; right: 30px; text-align:right; font-size:50px"""">N = 3</p>","g",0,73,135.899999856949,1,"agree",20,21,16,20,17,"50","MALE","GOOD SURVEY","Strong Agreement","Moderate Agreement","Very Strong Agreement","Strong Agreement","Moderate Agreement","Slight Agreement","Strong Agreement","Strong Agreement","Strong Agreement","Very Strong Agreement","Strong Agreement","Strong Agreement","Strong Agreement","Very Strong Agreement","Very Strong Agreement","Strong Agreement","Strong Agreement","Moderate Agreement"
